time,AccX,AccY,AccZ 
27487.0,-0.01641845703125,-0.884765625,0.5028076171875 
 ,0.0008544921875,-0.8756103515625,0.509521484375 
 ,0.01080322265625,-0.8729248046875,0.51177978515625 
 ,0.01513671875,-0.8773193359375,0.5130615234375 
 ,0.01715087890625,-0.88214111328125,0.51751708984375 
 ,0.01287841796875,-0.88409423828125,0.5167236328125 
 ,0.0076904296875,-0.88092041015625,0.5126953125 
 ,0.004638671875,-0.874755859375,0.5118408203125 
 ,0.0047607421875,-0.8702392578125,0.5120849609375 
 ,0.00616455078125,-0.87176513671875,0.51104736328125 
 ,0.00506591796875,-0.873291015625,0.5047607421875 
 ,0.001953125,-0.87451171875,0.50140380859375 
 ,0.0001220703125,-0.878662109375,0.49945068359375 
 ,-0.00152587890625,-0.884765625,0.498291015625 
 ,-0.00372314453125,-0.88775634765625,0.4967041015625 
 ,-0.00689697265625,-0.88787841796875,0.4920654296875 
 ,-0.0115966796875,-0.87725830078125,0.51495361328125 
 ,-0.01226806640625,-0.86541748046875,0.50152587890625 
 ,-0.0072021484375,-0.88665771484375,0.47430419921875 
 ,-0.00408935546875,-0.87188720703125,0.5059814453125 
 ,0.0054931640625,-0.88067626953125,0.487060546875 
 ,0.002197265625,-0.8795166015625,0.50537109375 
 ,-0.00457763671875,-0.87445068359375,0.50701904296875 
 ,-0.0023193359375,-0.87799072265625,0.49652099609375 
 ,0.00299072265625,-0.88262939453125,0.501708984375 
 ,0.0048828125,-0.88336181640625,0.50726318359375 
 ,-0.00054931640625,-0.88330078125,0.50201416015625 
 ,-0.0054931640625,-0.88739013671875,0.49853515625 
 ,-0.00848388671875,-0.89202880859375,0.49957275390625 
 ,-0.0101318359375,-0.89111328125,0.49896240234375 
 ,-0.0107421875,-0.88519287109375,0.49822998046875 
 ,-0.0093994140625,-0.8839111328125,0.49664306640625 
 ,-0.0072021484375,-0.8856201171875,0.4957275390625 
 ,-0.00640869140625,-0.88446044921875,0.496337890625 
 ,-0.0064697265625,-0.88165283203125,0.4959716796875 
 ,-0.00653076171875,-0.8797607421875,0.496826171875 
 ,-0.00750732421875,-0.87994384765625,0.496826171875 
 ,-0.00921630859375,-0.882080078125,0.49639892578125 
 ,-0.01165771484375,-0.88134765625,0.4959716796875 
 ,-0.012939453125,-0.88092041015625,0.49591064453125 
 ,-0.01373291015625,-0.8812255859375,0.49615478515625 
 ,-0.01080322265625,-0.88226318359375,0.49237060546875 
 ,-0.00830078125,-0.88336181640625,0.49090576171875 
 ,-0.00543212890625,-0.88433837890625,0.49273681640625 
 ,-0.00408935546875,-0.8836669921875,0.495361328125 
 ,-0.0050048828125,-0.8836669921875,0.49603271484375 
 ,-0.0048828125,-0.88262939453125,0.49957275390625 
 ,-0.00653076171875,-0.8812255859375,0.50311279296875 
 ,-0.00689697265625,-0.8807373046875,0.511962890625 
 ,-0.0081787109375,-0.8800048828125,0.51458740234375 
 ,-0.0086669921875,-0.88031005859375,0.501708984375 
 ,-0.009765625,-0.87841796875,0.505615234375 
 ,-0.0101318359375,-0.87451171875,0.50946044921875 
 ,-0.0101318359375,-0.8758544921875,0.48583984375 
 ,-0.010498046875,-0.88134765625,0.48138427734375 
 ,-0.00506591796875,-0.885498046875,0.48638916015625 
 ,-0.00201416015625,-0.8843994140625,0.49798583984375 
 ,-0.00518798828125,-0.874755859375,0.5107421875 
 ,-0.00579833984375,-0.8753662109375,0.50677490234375 
 ,-0.01202392578125,-0.8795166015625,0.49908447265625 
 ,-0.0230712890625,-0.8809814453125,0.49151611328125 
 ,-0.026611328125,-0.8834228515625,0.482666015625 
 ,-0.01953125,-0.8843994140625,0.48382568359375 
 ,-0.00836181640625,-0.88482666015625,0.48602294921875 
 ,-0.00421142578125,-0.8843994140625,0.48577880859375 
 ,-0.00567626953125,-0.8848876953125,0.48968505859375 
 ,-0.01007080078125,-0.88629150390625,0.49267578125 
 ,-0.01220703125,-0.88787841796875,0.4913330078125 
 ,-0.01324462890625,-0.8890380859375,0.49139404296875 
 ,-0.0113525390625,-0.88720703125,0.49249267578125 
 ,-0.01055908203125,-0.88397216796875,0.4954833984375 
 ,-0.01165771484375,-0.8814697265625,0.4954833984375 
 ,-0.01300048828125,-0.88140869140625,0.4935302734375 
 ,-0.01373291015625,-0.88348388671875,0.49212646484375 
 ,-0.01568603515625,-0.884765625,0.49169921875 
 ,-0.01605224609375,-0.882080078125,0.494384765625 
 ,-0.0145263671875,-0.8809814453125,0.49249267578125 
 ,-0.01397705078125,-0.88427734375,0.49224853515625 
 ,-0.0205078125,-0.876953125,0.5179443359375 
 ,-0.02435302734375,-0.8699951171875,0.50079345703125 
 ,-0.02447509765625,-0.89129638671875,0.4808349609375 
 ,-0.0233154296875,-0.87689208984375,0.5120849609375 
 ,-0.01629638671875,-0.88580322265625,0.48846435546875 
 ,-0.0198974609375,-0.88018798828125,0.50372314453125 
 ,-0.02923583984375,-0.8765869140625,0.50372314453125 
 ,-0.02716064453125,-0.88043212890625,0.489990234375 
 ,-0.02130126953125,-0.88330078125,0.49267578125 
 ,-0.0159912109375,-0.88055419921875,0.4984130859375 
 ,-0.01617431640625,-0.87896728515625,0.4969482421875 
 ,-0.01556396484375,-0.87982177734375,0.49151611328125 
 ,-0.01373291015625,-0.88470458984375,0.4918212890625 
 ,-0.0101318359375,-0.88433837890625,0.4932861328125 
 ,-0.00830078125,-0.88092041015625,0.49322509765625 
 ,-0.00872802734375,-0.87945556640625,0.4920654296875 
 ,-0.009033203125,-0.8826904296875,0.49322509765625 
 ,-0.0115966796875,-0.88385009765625,0.49224853515625 
 ,-0.01416015625,-0.88427734375,0.49200439453125 
 ,-0.0162353515625,-0.8834228515625,0.4932861328125 
 ,-0.01641845703125,-0.8858642578125,0.494873046875 
 ,-0.01708984375,-0.8858642578125,0.4923095703125 
 ,-0.017578125,-0.8861083984375,0.49127197265625 
 ,-0.01763916015625,-0.88623046875,0.4906005859375 
 ,-0.0169677734375,-0.88543701171875,0.49249267578125 
 ,-0.01593017578125,-0.885986328125,0.49176025390625 
 ,-0.01800537109375,-0.88824462890625,0.49261474609375 
 ,-0.01800537109375,-0.8878173828125,0.49237060546875 
 ,-0.017333984375,-0.88580322265625,0.49285888671875 
 ,-0.01715087890625,-0.88531494140625,0.4952392578125 
 ,-0.01751708984375,-0.88543701171875,0.49365234375 
 ,-0.0181884765625,-0.885009765625,0.49188232421875 
 ,-0.0169677734375,-0.88427734375,0.496826171875 
 ,-0.0185546875,-0.88348388671875,0.499267578125 
 ,-0.01837158203125,-0.88128662109375,0.49072265625 
 ,-0.02032470703125,-0.87860107421875,0.5013427734375 
 ,-0.01800537109375,-0.87640380859375,0.50860595703125 
 ,-0.01556396484375,-0.88104248046875,0.4844970703125 
 ,-0.0169677734375,-0.883544921875,0.48052978515625 
 ,-0.011474609375,-0.886962890625,0.48486328125 
 ,-0.00677490234375,-0.88983154296875,0.4915771484375 
 ,-0.01220703125,-0.88079833984375,0.50762939453125 
 ,-0.01434326171875,-0.87774658203125,0.5052490234375 
 ,-0.0185546875,-0.88153076171875,0.49884033203125 
 ,-0.0279541015625,-0.88433837890625,0.49188232421875 
 ,-0.02947998046875,-0.88897705078125,0.48101806640625 
 ,-0.02142333984375,-0.888427734375,0.48309326171875 
 ,-0.011474609375,-0.8856201171875,0.485595703125 
 ,-0.0074462890625,-0.88592529296875,0.484130859375 
 ,-0.00927734375,-0.88677978515625,0.485107421875 
 ,-0.0147705078125,-0.88677978515625,0.487548828125 
 ,-0.01715087890625,-0.8865966796875,0.48956298828125 
 ,-0.01507568359375,-0.88690185546875,0.48846435546875 
 ,-0.0146484375,-0.8853759765625,0.49224853515625 
 ,-0.01373291015625,-0.8839111328125,0.4949951171875 
 ,-0.0133056640625,-0.884765625,0.49224853515625 
 ,-0.01434326171875,-0.88568115234375,0.489990234375 
 ,-0.01519775390625,-0.8876953125,0.48590087890625 
 ,-0.0177001953125,-0.88726806640625,0.4852294921875 
 ,-0.0184326171875,-0.88568115234375,0.48675537109375 
 ,-0.01483154296875,-0.88580322265625,0.484130859375 
 ,-0.01226806640625,-0.8868408203125,0.48388671875 
 ,-0.01239013671875,-0.8834228515625,0.5008544921875 
 ,-0.01416015625,-0.8775634765625,0.4942626953125 
 ,-0.01373291015625,-0.9007568359375,0.4622802734375 
 ,-0.01416015625,-0.88629150390625,0.496826171875 
 ,-0.0081787109375,-0.89166259765625,0.4739990234375 
 ,-0.01507568359375,-0.89520263671875,0.48614501953125 
 ,-0.02447509765625,-0.8868408203125,0.49188232421875 
 ,-0.02899169921875,-0.8857421875,0.47833251953125 
 ,-0.0238037109375,-0.88861083984375,0.481201171875 
 ,-0.01861572265625,-0.88946533203125,0.48736572265625 
 ,-0.015869140625,-0.88983154296875,0.48443603515625 
 ,-0.01873779296875,-0.89111328125,0.47802734375 
 ,-0.02056884765625,-0.89483642578125,0.47747802734375 
 ,-0.02008056640625,-0.89410400390625,0.47979736328125 
 ,-0.0159912109375,-0.8895263671875,0.47955322265625 
 ,-0.01361083984375,-0.88751220703125,0.4818115234375 
 ,-0.01263427734375,-0.8887939453125,0.48095703125 
 ,-0.01202392578125,-0.88934326171875,0.48260498046875 
 ,-0.01324462890625,-0.887451171875,0.4840087890625 
 ,-0.01171875,-0.88714599609375,0.485107421875 
 ,-0.0103759765625,-0.8892822265625,0.48577880859375 
 ,-0.01275634765625,-0.8900146484375,0.4854736328125 
 ,-0.0166015625,-0.888427734375,0.4859619140625 
 ,-0.01788330078125,-0.88818359375,0.487548828125 
 ,-0.0198974609375,-0.88525390625,0.48992919921875 
 ,-0.0179443359375,-0.88671875,0.4873046875 
 ,-0.0172119140625,-0.8873291015625,0.485107421875 
 ,-0.01776123046875,-0.88818359375,0.48541259765625 
 ,-0.01885986328125,-0.88812255859375,0.4854736328125 
 ,-0.01763916015625,-0.8878173828125,0.48712158203125 
 ,-0.01641845703125,-0.886962890625,0.48443603515625 
 ,-0.014892578125,-0.8883056640625,0.48468017578125 
 ,-0.0157470703125,-0.88922119140625,0.48974609375 
 ,-0.01629638671875,-0.8876953125,0.49371337890625 
 ,-0.01910400390625,-0.8863525390625,0.484130859375 
 ,-0.02056884765625,-0.88470458984375,0.48760986328125 
 ,-0.01885986328125,-0.8834228515625,0.49993896484375 
 ,-0.0174560546875,-0.8846435546875,0.48126220703125 
 ,-0.0198974609375,-0.8875732421875,0.47412109375 
 ,-0.01605224609375,-0.88720703125,0.47564697265625 
 ,-0.01129150390625,-0.89166259765625,0.4801025390625 
 ,-0.01458740234375,-0.8856201171875,0.498291015625 
 ,-0.01641845703125,-0.88165283203125,0.5006103515625 
 ,-0.01806640625,-0.88299560546875,0.4930419921875 
 ,-0.0252685546875,-0.88690185546875,0.48529052734375 
 ,-0.030029296875,-0.8922119140625,0.47283935546875 
 ,-0.027099609375,-0.892822265625,0.474365234375 
 ,-0.01678466796875,-0.8895263671875,0.479736328125 
 ,-0.0113525390625,-0.88873291015625,0.47900390625 
 ,-0.01226806640625,-0.89013671875,0.479248046875 
 ,-0.015625,-0.8914794921875,0.4827880859375 
 ,-0.01739501953125,-0.890869140625,0.4825439453125 
 ,-0.017333984375,-0.89044189453125,0.481201171875 
 ,-0.01666259765625,-0.89117431640625,0.4815673828125 
 ,-0.0155029296875,-0.889404296875,0.48358154296875 
 ,-0.015380859375,-0.888427734375,0.48321533203125 
 ,-0.01544189453125,-0.8883056640625,0.48052978515625 
 ,-0.01611328125,-0.88934326171875,0.4783935546875 
 ,-0.0166015625,-0.8905029296875,0.47930908203125 
 ,-0.0157470703125,-0.890869140625,0.47686767578125 
 ,-0.0146484375,-0.89312744140625,0.4755859375 
 ,-0.0146484375,-0.89373779296875,0.47467041015625 
 ,-0.0177001953125,-0.8900146484375,0.48968505859375 
 ,-0.01904296875,-0.87396240234375,0.5020751953125 
 ,-0.0159912109375,-0.8983154296875,0.45758056640625 
 ,-0.0155029296875,-0.8922119140625,0.4903564453125 
 ,-0.01025390625,-0.89263916015625,0.47589111328125 
 ,-0.01031494140625,-0.897216796875,0.47869873046875 
 ,-0.02288818359375,-0.88946533203125,0.48931884765625 
 ,-0.0234375,-0.88873291015625,0.47564697265625 
 ,-0.0164794921875,-0.89190673828125,0.4786376953125 
 ,-0.0133056640625,-0.89239501953125,0.4852294921875 
 ,-0.01416015625,-0.89056396484375,0.48223876953125 
 ,-0.0166015625,-0.88983154296875,0.4764404296875 
 ,-0.017333984375,-0.89117431640625,0.47674560546875 
 ,-0.01739501953125,-0.89324951171875,0.47869873046875 
 ,-0.01751708984375,-0.89013671875,0.47796630859375 
 ,-0.01593017578125,-0.88818359375,0.47747802734375 
 ,-0.01513671875,-0.8914794921875,0.4754638671875 
 ,-0.0162353515625,-0.8929443359375,0.4755859375 
 ,-0.01629638671875,-0.8919677734375,0.476806640625 
 ,-0.01666259765625,-0.892822265625,0.47882080078125 
 ,-0.0174560546875,-0.8917236328125,0.4796142578125 
 ,-0.0184326171875,-0.892333984375,0.47943115234375 
 ,-0.02032470703125,-0.8936767578125,0.47955322265625 
 ,-0.02178955078125,-0.894287109375,0.4801025390625 
 ,-0.0223388671875,-0.8919677734375,0.4805908203125 
 ,-0.02166748046875,-0.8922119140625,0.4813232421875 
 ,-0.020263671875,-0.89324951171875,0.47918701171875 
 ,-0.02044677734375,-0.89251708984375,0.4793701171875 
 ,-0.0201416015625,-0.89263916015625,0.4791259765625 
 ,-0.01708984375,-0.891845703125,0.47998046875 
 ,-0.0157470703125,-0.89154052734375,0.4791259765625 
 ,-0.01495361328125,-0.890869140625,0.4783935546875 
 ,-0.0130615234375,-0.8912353515625,0.48309326171875 
 ,-0.01483154296875,-0.8912353515625,0.48846435546875 
 ,-0.01727294921875,-0.8896484375,0.4825439453125 
 ,-0.01800537109375,-0.8890380859375,0.47894287109375 
 ,-0.01837158203125,-0.88525390625,0.4931640625 
 ,-0.0181884765625,-0.88720703125,0.47930908203125 
 ,-0.0203857421875,-0.89166259765625,0.46697998046875 
 ,-0.018310546875,-0.8931884765625,0.46978759765625 
 ,-0.0123291015625,-0.89666748046875,0.4742431640625 
 ,-0.01531982421875,-0.89080810546875,0.49053955078125 
 ,-0.01727294921875,-0.8841552734375,0.4962158203125 
 ,-0.0184326171875,-0.88812255859375,0.48974609375 
 ,-0.02545166015625,-0.89093017578125,0.48480224609375 
 ,-0.02984619140625,-0.8931884765625,0.474365234375 
 ,-0.02569580078125,-0.89697265625,0.47100830078125 
 ,-0.0152587890625,-0.89349365234375,0.47735595703125 
 ,-0.00823974609375,-0.88958740234375,0.477783203125 
 ,-0.009033203125,-0.8917236328125,0.47601318359375 
 ,-0.0106201171875,-0.89434814453125,0.4808349609375 
 ,-0.01397705078125,-0.89306640625,0.48309326171875 
 ,-0.01556396484375,-0.88995361328125,0.48248291015625 
 ,-0.013671875,-0.889892578125,0.48199462890625 
 ,-0.01434326171875,-0.88800048828125,0.48406982421875 
 ,-0.01416015625,-0.8848876953125,0.4864501953125 
 ,-0.01495361328125,-0.88470458984375,0.4844970703125 
 ,-0.01580810546875,-0.88592529296875,0.4832763671875 
 ,-0.01507568359375,-0.885009765625,0.48260498046875 
 ,-0.0157470703125,-0.88555908203125,0.4853515625 
 ,-0.01361083984375,-0.8883056640625,0.4862060546875 
 ,-0.01373291015625,-0.892578125,0.4859619140625 
 ,-0.0157470703125,-0.8905029296875,0.49798583984375 
 ,-0.0191650390625,-0.87030029296875,0.51959228515625 
 ,-0.013671875,-0.89007568359375,0.47515869140625 
 ,-0.011962890625,-0.89093017578125,0.50177001953125 
 ,-0.0093994140625,-0.88751220703125,0.49432373046875 
 ,-0.00738525390625,-0.88983154296875,0.490234375 
 ,-0.02105712890625,-0.8797607421875,0.50634765625 
 ,-0.02392578125,-0.88006591796875,0.49298095703125 
 ,-0.01763916015625,-0.88330078125,0.49151611328125 
 ,-0.01336669921875,-0.88177490234375,0.49957275390625 
 ,-0.0137939453125,-0.87890625,0.49822998046875 
 ,-0.015625,-0.87921142578125,0.49322509765625 
 ,-0.01605224609375,-0.8828125,0.49407958984375 
 ,-0.016357421875,-0.883056640625,0.49749755859375 
 ,-0.0166015625,-0.87872314453125,0.50067138671875 
 ,-0.01556396484375,-0.8756103515625,0.49932861328125 
 ,-0.01385498046875,-0.87823486328125,0.49774169921875 
 ,-0.01544189453125,-0.87945556640625,0.498291015625 
 ,-0.0174560546875,-0.87738037109375,0.49945068359375 
 ,-0.01788330078125,-0.87664794921875,0.50091552734375 
 ,-0.01885986328125,-0.87738037109375,0.50201416015625 
 ,-0.02020263671875,-0.87957763671875,0.5013427734375 
 ,-0.0208740234375,-0.880126953125,0.5013427734375 
 ,-0.02099609375,-0.8787841796875,0.50244140625 
 ,-0.021240234375,-0.87738037109375,0.50274658203125 
 ,-0.02056884765625,-0.87701416015625,0.50250244140625 
 ,-0.0213623046875,-0.8797607421875,0.5008544921875 
 ,-0.02142333984375,-0.8829345703125,0.49798583984375 
 ,-0.02081298828125,-0.88201904296875,0.49664306640625 
 ,-0.0205078125,-0.88018798828125,0.50250244140625 
 ,-0.01898193359375,-0.876953125,0.50439453125 
 ,-0.020263671875,-0.87762451171875,0.5009765625 
 ,-0.0201416015625,-0.87860107421875,0.507568359375 
 ,-0.02093505859375,-0.87567138671875,0.51824951171875 
 ,-0.0213623046875,-0.87664794921875,0.51458740234375 
 ,-0.02099609375,-0.8775634765625,0.5047607421875 
 ,-0.02178955078125,-0.8719482421875,0.51544189453125 
 ,-0.01885986328125,-0.87213134765625,0.509033203125 
 ,-0.0185546875,-0.87908935546875,0.4935302734375 
 ,-0.01861572265625,-0.8746337890625,0.4990234375 
 ,-0.01361083984375,-0.873779296875,0.5006103515625 
 ,-0.014404296875,-0.87469482421875,0.514404296875 
 ,-0.0184326171875,-0.87255859375,0.51776123046875 
 ,-0.02166748046875,-0.873046875,0.52001953125 
 ,-0.03155517578125,-0.869140625,0.51971435546875 
 ,-0.03826904296875,-0.874755859375,0.51348876953125 
 ,-0.02996826171875,-0.88336181640625,0.502685546875 
 ,-0.0201416015625,-0.88177490234375,0.5059814453125 
 ,-0.0115966796875,-0.87615966796875,0.50628662109375 
 ,-0.010986328125,-0.87286376953125,0.510498046875 
 ,-0.01409912109375,-0.87359619140625,0.5089111328125 
 ,-0.0164794921875,-0.87200927734375,0.5091552734375 
 ,-0.01715087890625,-0.871337890625,0.5111083984375 
 ,-0.01812744140625,-0.8695068359375,0.509521484375 
 ,-0.0228271484375,-0.86492919921875,0.514404296875 
 ,-0.02545166015625,-0.86651611328125,0.5177001953125 
 ,-0.0240478515625,-0.8681640625,0.52423095703125 
 ,-0.0201416015625,-0.86651611328125,0.5316162109375 
 ,-0.0184326171875,-0.86614990234375,0.52783203125 
 ,-0.01739501953125,-0.87054443359375,0.52154541015625 
 ,-0.01953125,-0.87371826171875,0.5147705078125 
 ,-0.02032470703125,-0.87615966796875,0.51019287109375 
 ,-0.02001953125,-0.873291015625,0.52587890625 
 ,-0.02044677734375,-0.84796142578125,0.55316162109375 
 ,-0.01348876953125,-0.8699951171875,0.5040283203125 
 ,-0.0166015625,-0.86968994140625,0.53790283203125 
 ,-0.0169677734375,-0.87152099609375,0.53369140625 
 ,-0.014892578125,-0.8677978515625,0.54010009765625 
 ,-0.02801513671875,-0.85809326171875,0.5452880859375 
 ,-0.0318603515625,-0.86376953125,0.52972412109375 
 ,-0.0234375,-0.8624267578125,0.5333251953125 
 ,-0.01904296875,-0.85723876953125,0.54412841796875 
 ,-0.0172119140625,-0.85699462890625,0.543212890625 
 ,-0.01922607421875,-0.8619384765625,0.54083251953125 
 ,-0.0205078125,-0.86065673828125,0.54559326171875 
 ,-0.0196533203125,-0.8553466796875,0.5478515625 
39624.0,-0.0177001953125,-0.85162353515625,0.54681396484375 
 ,-0.0191650390625,-0.84771728515625,0.55364990234375 
 ,-0.0225830078125,-0.84600830078125,0.55718994140625 
 ,-0.0247802734375,-0.8475341796875,0.5562744140625 
 ,-0.0242919921875,-0.84844970703125,0.55706787109375 
 ,-0.02276611328125,-0.84893798828125,0.5562744140625 
 ,-0.02032470703125,-0.846923828125,0.55535888671875 
 ,-0.0216064453125,-0.8472900390625,0.555419921875 
 ,-0.02398681640625,-0.84716796875,0.55712890625 
 ,-0.02374267578125,-0.8433837890625,0.56280517578125 
 ,-0.0242919921875,-0.84039306640625,0.56463623046875 
 ,-0.02154541015625,-0.84228515625,0.563232421875 
 ,-0.02215576171875,-0.84466552734375,0.56085205078125 
 ,-0.0218505859375,-0.84454345703125,0.565673828125 
 ,-0.02325439453125,-0.83917236328125,0.56781005859375 
 ,-0.02178955078125,-0.8363037109375,0.568359375 
 ,-0.0213623046875,-0.83428955078125,0.57159423828125 
 ,-0.021240234375,-0.83416748046875,0.57891845703125 
 ,-0.02325439453125,-0.83038330078125,0.586669921875 
 ,-0.02423095703125,-0.8306884765625,0.5765380859375 
 ,-0.02447509765625,-0.83575439453125,0.55828857421875 
 ,-0.0255126953125,-0.838623046875,0.55694580078125 
 ,-0.01898193359375,-0.8388671875,0.55145263671875 
 ,-0.01361083984375,-0.82745361328125,0.56402587890625 
 ,-0.01397705078125,-0.818115234375,0.58050537109375 
 ,-0.0185546875,-0.8206787109375,0.586669921875 
 ,-0.02081298828125,-0.8299560546875,0.569091796875 
 ,-0.024169921875,-0.84490966796875,0.5662841796875 
 ,-0.02508544921875,-0.84564208984375,0.582275390625 
 ,-0.0279541015625,-0.83795166015625,0.58245849609375 
 ,-0.02960205078125,-0.842529296875,0.57025146484375 
 ,-0.02685546875,-0.8487548828125,0.562255859375 
 ,-0.01849365234375,-0.84710693359375,0.569091796875 
 ,-0.01348876953125,-0.8304443359375,0.58038330078125 
 ,-0.015869140625,-0.8260498046875,0.58056640625 
 ,-0.02032470703125,-0.8341064453125,0.58111572265625 
 ,-0.02252197265625,-0.83709716796875,0.58135986328125 
 ,-0.02264404296875,-0.83502197265625,0.57830810546875 
 ,-0.01959228515625,-0.83282470703125,0.57708740234375 
 ,-0.02008056640625,-0.8333740234375,0.57720947265625 
 ,-0.0203857421875,-0.8289794921875,0.5777587890625 
 ,-0.02166748046875,-0.83026123046875,0.5726318359375 
 ,-0.02166748046875,-0.83416748046875,0.5714111328125 
 ,-0.0196533203125,-0.83319091796875,0.5679931640625 
 ,-0.0172119140625,-0.83587646484375,0.56524658203125 
 ,-0.0155029296875,-0.844482421875,0.55694580078125 
 ,-0.012939453125,-0.853271484375,0.55987548828125 
 ,-0.01898193359375,-0.8270263671875,0.60064697265625 
 ,-0.0196533203125,-0.81072998046875,0.57568359375 
 ,-0.01629638671875,-0.8321533203125,0.56488037109375 
 ,-0.02252197265625,-0.8302001953125,0.5853271484375 
 ,-0.01092529296875,-0.84320068359375,0.57366943359375 
 ,-0.0225830078125,-0.82244873046875,0.59356689453125 
 ,-0.02496337890625,-0.826904296875,0.5810546875 
 ,-0.0107421875,-0.84283447265625,0.57861328125 
 ,-0.009521484375,-0.83465576171875,0.591552734375 
 ,-0.01190185546875,-0.82183837890625,0.59466552734375 
 ,-0.02154541015625,-0.8211669921875,0.60003662109375 
 ,-0.02777099609375,-0.82147216796875,0.60845947265625 
 ,-0.02825927734375,-0.8170166015625,0.60272216796875 
 ,-0.02471923828125,-0.8134765625,0.6019287109375 
 ,-0.02056884765625,-0.814453125,0.60546875 
 ,-0.018310546875,-0.8134765625,0.60711669921875 
 ,-0.0162353515625,-0.81402587890625,0.60772705078125 
 ,-0.01513671875,-0.815185546875,0.60723876953125 
 ,-0.01409912109375,-0.815673828125,0.6058349609375 
 ,-0.0172119140625,-0.818359375,0.60260009765625 
 ,-0.01763916015625,-0.8204345703125,0.60015869140625 
 ,-0.01702880859375,-0.82232666015625,0.60113525390625 
 ,-0.01348876953125,-0.8193359375,0.59942626953125 
 ,-0.01275634765625,-0.81689453125,0.6026611328125 
 ,-0.0133056640625,-0.811767578125,0.615478515625 
 ,-0.0142822265625,-0.80560302734375,0.61346435546875 
 ,-0.01165771484375,-0.8062744140625,0.60302734375 
 ,-0.01544189453125,-0.80938720703125,0.6112060546875 
 ,-0.0172119140625,-0.81024169921875,0.6201171875 
 ,-0.01544189453125,-0.8133544921875,0.61541748046875 
 ,-0.01446533203125,-0.81781005859375,0.61383056640625 
 ,-0.01531982421875,-0.81890869140625,0.60577392578125 
 ,-0.0145263671875,-0.81744384765625,0.5865478515625 
 ,-0.01544189453125,-0.81280517578125,0.59088134765625 
 ,-0.01287841796875,-0.80609130859375,0.60626220703125 
 ,-0.01470947265625,-0.799072265625,0.6126708984375 
 ,-0.02215576171875,-0.800048828125,0.6146240234375 
 ,-0.019775390625,-0.80914306640625,0.60784912109375 
 ,-0.0177001953125,-0.8211669921875,0.591064453125 
 ,-0.0206298828125,-0.822021484375,0.59942626953125 
 ,-0.0196533203125,-0.81781005859375,0.61163330078125 
 ,-0.02215576171875,-0.813720703125,0.60504150390625 
 ,-0.02349853515625,-0.8153076171875,0.60076904296875 
 ,-0.0169677734375,-0.81842041015625,0.60699462890625 
 ,-0.0135498046875,-0.80908203125,0.61090087890625 
 ,-0.01531982421875,-0.80487060546875,0.60772705078125 
 ,-0.0228271484375,-0.806640625,0.60833740234375 
 ,-0.02239990234375,-0.8082275390625,0.60736083984375 
 ,-0.02215576171875,-0.81036376953125,0.6077880859375 
 ,-0.02032470703125,-0.810546875,0.60467529296875 
 ,-0.02056884765625,-0.8094482421875,0.6068115234375 
 ,-0.018310546875,-0.810791015625,0.60479736328125 
 ,-0.017822265625,-0.80780029296875,0.609619140625 
 ,-0.01788330078125,-0.80450439453125,0.60723876953125 
 ,-0.01690673828125,-0.8055419921875,0.60760498046875 
 ,-0.01580810546875,-0.80938720703125,0.6119384765625 
 ,-0.0177001953125,-0.80731201171875,0.61273193359375 
 ,-0.0186767578125,-0.8087158203125,0.612060546875 
 ,-0.01763916015625,-0.81622314453125,0.60894775390625 
 ,-0.0201416015625,-0.81298828125,0.62213134765625 
 ,-0.02349853515625,-0.78594970703125,0.63714599609375 
 ,-0.012939453125,-0.80023193359375,0.59222412109375 
 ,-0.018798828125,-0.803955078125,0.61944580078125 
 ,-0.01324462890625,-0.8204345703125,0.6083984375 
 ,-0.0189208984375,-0.808349609375,0.62066650390625 
 ,-0.0323486328125,-0.79949951171875,0.6044921875 
 ,-0.02197265625,-0.81048583984375,0.60833740234375 
 ,-0.01617431640625,-0.81231689453125,0.62042236328125 
 ,-0.0137939453125,-0.802490234375,0.62677001953125 
 ,-0.017578125,-0.79718017578125,0.61676025390625 
 ,-0.0238037109375,-0.79925537109375,0.6173095703125 
 ,-0.02587890625,-0.7972412109375,0.62481689453125 
 ,-0.0225830078125,-0.796875,0.6312255859375 
 ,-0.01806640625,-0.80072021484375,0.6331787109375 
 ,-0.01953125,-0.79931640625,0.62860107421875 
 ,-0.0223388671875,-0.7991943359375,0.62274169921875 
 ,-0.02410888671875,-0.794189453125,0.6268310546875 
 ,-0.025634765625,-0.78900146484375,0.63153076171875 
 ,-0.024169921875,-0.78936767578125,0.6278076171875 
 ,-0.02667236328125,-0.78985595703125,0.63031005859375 
 ,-0.029541015625,-0.7938232421875,0.628173828125 
 ,-0.02801513671875,-0.7979736328125,0.62237548828125 
 ,-0.02569580078125,-0.798828125,0.62298583984375 
 ,-0.02435302734375,-0.7967529296875,0.6287841796875 
 ,-0.0224609375,-0.7960205078125,0.6339111328125 
 ,-0.02093505859375,-0.7947998046875,0.63287353515625 
 ,-0.02398681640625,-0.79266357421875,0.63140869140625 
 ,-0.02410888671875,-0.79425048828125,0.6337890625 
 ,-0.02166748046875,-0.79876708984375,0.63165283203125 
 ,-0.02252197265625,-0.79449462890625,0.626708984375 
 ,-0.02294921875,-0.790771484375,0.62127685546875 
 ,-0.02325439453125,-0.7904052734375,0.6163330078125 
 ,-0.02215576171875,-0.80010986328125,0.62078857421875 
 ,-0.01824951171875,-0.78997802734375,0.637451171875 
 ,-0.0205078125,-0.77728271484375,0.6387939453125 
 ,-0.02130126953125,-0.79840087890625,0.6268310546875 
 ,-0.0201416015625,-0.8170166015625,0.62042236328125 
 ,-0.02191162109375,-0.8153076171875,0.62164306640625 
 ,-0.02606201171875,-0.80316162109375,0.62701416015625 
 ,-0.0318603515625,-0.79638671875,0.62225341796875 
 ,-0.0279541015625,-0.7982177734375,0.61578369140625 
 ,-0.022216796875,-0.79705810546875,0.61724853515625 
 ,-0.02166748046875,-0.7926025390625,0.62335205078125 
 ,-0.0242919921875,-0.7967529296875,0.62298583984375 
 ,-0.02532958984375,-0.80279541015625,0.6199951171875 
 ,-0.02276611328125,-0.80499267578125,0.6190185546875 
 ,-0.020263671875,-0.802734375,0.62139892578125 
 ,-0.0194091796875,-0.80010986328125,0.62158203125 
 ,-0.0198974609375,-0.8006591796875,0.6209716796875 
 ,-0.0224609375,-0.79876708984375,0.61737060546875 
 ,-0.02313232421875,-0.79766845703125,0.61761474609375 
 ,-0.02154541015625,-0.8004150390625,0.6173095703125 
 ,-0.021240234375,-0.80169677734375,0.6197509765625 
 ,-0.0223388671875,-0.80218505859375,0.6220703125 
 ,-0.022705078125,-0.80279541015625,0.618896484375 
 ,-0.02044677734375,-0.81005859375,0.61688232421875 
 ,-0.02154541015625,-0.818359375,0.61187744140625 
 ,-0.0211181640625,-0.819580078125,0.6116943359375 
 ,-0.02587890625,-0.8028564453125,0.644287109375 
 ,-0.0234375,-0.78302001953125,0.62921142578125 
 ,-0.016845703125,-0.8038330078125,0.6021728515625 
 ,-0.0242919921875,-0.807861328125,0.62615966796875 
 ,-0.0146484375,-0.81854248046875,0.62225341796875 
 ,-0.0291748046875,-0.79766845703125,0.621826171875 
 ,-0.03289794921875,-0.79931640625,0.61309814453125 
 ,-0.0198974609375,-0.8114013671875,0.62054443359375 
 ,-0.01666259765625,-0.8065185546875,0.62701416015625 
 ,-0.01763916015625,-0.79693603515625,0.62506103515625 
 ,-0.02410888671875,-0.79327392578125,0.6265869140625 
 ,-0.0264892578125,-0.7979736328125,0.6209716796875 
 ,-0.0238037109375,-0.79498291015625,0.62298583984375 
 ,-0.02227783203125,-0.7918701171875,0.63031005859375 
 ,-0.02252197265625,-0.7935791015625,0.6290283203125 
 ,-0.02459716796875,-0.79156494140625,0.63177490234375 
 ,-0.02496337890625,-0.78741455078125,0.6353759765625 
 ,-0.02496337890625,-0.78643798828125,0.6334228515625 
 ,-0.02593994140625,-0.79052734375,0.63385009765625 
 ,-0.02581787109375,-0.7913818359375,0.6353759765625 
 ,-0.02557373046875,-0.792724609375,0.63336181640625 
 ,-0.02362060546875,-0.797119140625,0.63165283203125 
 ,-0.0233154296875,-0.7969970703125,0.63079833984375 
 ,-0.02398681640625,-0.79150390625,0.63470458984375 
 ,-0.0245361328125,-0.7906494140625,0.63427734375 
 ,-0.0260009765625,-0.7908935546875,0.63214111328125 
 ,-0.0284423828125,-0.791015625,0.635498046875 
 ,-0.02899169921875,-0.78875732421875,0.63897705078125 
 ,-0.02777099609375,-0.79351806640625,0.63763427734375 
 ,-0.0272216796875,-0.79632568359375,0.6392822265625 
 ,-0.02752685546875,-0.790771484375,0.63482666015625 
 ,-0.02740478515625,-0.793212890625,0.62420654296875 
 ,-0.02215576171875,-0.80316162109375,0.61639404296875 
 ,-0.018310546875,-0.783203125,0.640869140625 
 ,-0.02001953125,-0.773681640625,0.636962890625 
 ,-0.018310546875,-0.795166015625,0.62725830078125 
 ,-0.0206298828125,-0.8106689453125,0.62237548828125 
 ,-0.02398681640625,-0.811767578125,0.61981201171875 
 ,-0.03106689453125,-0.80010986328125,0.62567138671875 
 ,-0.02850341796875,-0.79595947265625,0.6195068359375 
 ,-0.02276611328125,-0.802490234375,0.620361328125 
 ,-0.020263671875,-0.7999267578125,0.62371826171875 
 ,-0.02374267578125,-0.7928466796875,0.62139892578125 
 ,-0.029541015625,-0.796630859375,0.6224365234375 
 ,-0.03070068359375,-0.80352783203125,0.62353515625 
 ,-0.02777099609375,-0.80267333984375,0.6214599609375 
 ,-0.025146484375,-0.80267333984375,0.61993408203125 
 ,-0.02374267578125,-0.80035400390625,0.61944580078125 
 ,-0.0223388671875,-0.7984619140625,0.61834716796875 
 ,-0.02130126953125,-0.800048828125,0.61480712890625 
 ,-0.02069091796875,-0.8013916015625,0.615966796875 
 ,-0.018798828125,-0.8011474609375,0.61529541015625 
 ,-0.0208740234375,-0.8023681640625,0.6182861328125 
 ,-0.02197265625,-0.80535888671875,0.619384765625 
 ,-0.02239990234375,-0.8084716796875,0.617431640625 
 ,-0.02130126953125,-0.81268310546875,0.615234375 
 ,-0.0208740234375,-0.8157958984375,0.60986328125 
 ,-0.01873779296875,-0.8197021484375,0.60595703125 
 ,-0.02178955078125,-0.81280517578125,0.62408447265625 
 ,-0.02587890625,-0.78448486328125,0.64227294921875 
 ,-0.0174560546875,-0.80401611328125,0.59033203125 
 ,-0.0223388671875,-0.81353759765625,0.61566162109375 
 ,-0.01593017578125,-0.82421875,0.61285400390625 
 ,-0.0223388671875,-0.8011474609375,0.62152099609375 
 ,-0.0323486328125,-0.79547119140625,0.61322021484375 
 ,-0.0206298828125,-0.80828857421875,0.6090087890625 
 ,-0.02197265625,-0.805419921875,0.6168212890625 
 ,-0.02276611328125,-0.80078125,0.6187744140625 
 ,-0.0279541015625,-0.8040771484375,0.615966796875 
 ,-0.02801513671875,-0.8074951171875,0.615966796875 
 ,-0.027587890625,-0.805908203125,0.61663818359375 
 ,-0.02679443359375,-0.8046875,0.6158447265625 
 ,-0.025634765625,-0.80584716796875,0.61968994140625 
 ,-0.02716064453125,-0.80352783203125,0.62164306640625 
 ,-0.02716064453125,-0.8021240234375,0.62127685546875 
 ,-0.0263671875,-0.8026123046875,0.6201171875 
 ,-0.027099609375,-0.8031005859375,0.6177978515625 
 ,-0.02740478515625,-0.80206298828125,0.618408203125 
 ,-0.02655029296875,-0.80023193359375,0.6195068359375 
 ,-0.027099609375,-0.7996826171875,0.62030029296875 
 ,-0.02764892578125,-0.80194091796875,0.6153564453125 
 ,-0.02764892578125,-0.80242919921875,0.61572265625 
 ,-0.02728271484375,-0.80169677734375,0.62115478515625 
 ,-0.02642822265625,-0.80126953125,0.6221923828125 
 ,-0.0264892578125,-0.801513671875,0.61981201171875 
 ,-0.02618408203125,-0.8031005859375,0.6190185546875 
 ,-0.02581787109375,-0.80706787109375,0.61859130859375 
 ,-0.02386474609375,-0.807373046875,0.62518310546875 
 ,-0.02587890625,-0.7982177734375,0.62481689453125 
 ,-0.02789306640625,-0.79901123046875,0.61407470703125 
 ,-0.025146484375,-0.81329345703125,0.6007080078125 
 ,-0.0228271484375,-0.80194091796875,0.6220703125 
 ,-0.02374267578125,-0.77838134765625,0.62786865234375 
 ,-0.01995849609375,-0.8062744140625,0.60577392578125 
 ,-0.02349853515625,-0.82574462890625,0.60986328125 
 ,-0.024658203125,-0.824462890625,0.60833740234375 
 ,-0.03167724609375,-0.8131103515625,0.60882568359375 
 ,-0.031005859375,-0.81005859375,0.60577392578125 
 ,-0.02423095703125,-0.8167724609375,0.60394287109375 
 ,-0.01904296875,-0.8165283203125,0.60565185546875 
 ,-0.01995849609375,-0.81146240234375,0.60302734375 
 ,-0.02447509765625,-0.81292724609375,0.6016845703125 
 ,-0.02886962890625,-0.8140869140625,0.6041259765625 
 ,-0.02935791015625,-0.81268310546875,0.6048583984375 
 ,-0.02581787109375,-0.8114013671875,0.60614013671875 
 ,-0.02593994140625,-0.81170654296875,0.60504150390625 
 ,-0.0269775390625,-0.814453125,0.6031494140625 
 ,-0.028076171875,-0.8154296875,0.60089111328125 
 ,-0.0274658203125,-0.813232421875,0.60107421875 
 ,-0.02606201171875,-0.81207275390625,0.60162353515625 
 ,-0.0257568359375,-0.8153076171875,0.602294921875 
 ,-0.02606201171875,-0.818359375,0.602294921875 
 ,-0.02655029296875,-0.81634521484375,0.60357666015625 
 ,-0.02557373046875,-0.81915283203125,0.6014404296875 
 ,-0.0242919921875,-0.82305908203125,0.5960693359375 
 ,-0.0242919921875,-0.8260498046875,0.58984375 
 ,-0.0279541015625,-0.82427978515625,0.597900390625 
 ,-0.03314208984375,-0.803955078125,0.635986328125 
 ,-0.02691650390625,-0.799072265625,0.59246826171875 
 ,-0.01861572265625,-0.8245849609375,0.5858154296875 
 ,-0.02447509765625,-0.83135986328125,0.600830078125 
 ,-0.016845703125,-0.82489013671875,0.61083984375 
 ,-0.0343017578125,-0.80218505859375,0.60601806640625 
 ,-0.0311279296875,-0.8165283203125,0.59326171875 
 ,-0.0233154296875,-0.8216552734375,0.59710693359375 
 ,-0.021728515625,-0.81121826171875,0.60504150390625 
 ,-0.0235595703125,-0.8084716796875,0.6068115234375 
 ,-0.02716064453125,-0.81103515625,0.60540771484375 
 ,-0.0272216796875,-0.81304931640625,0.6048583984375 
 ,-0.0262451171875,-0.8145751953125,0.6058349609375 
 ,-0.0263671875,-0.81243896484375,0.60791015625 
 ,-0.0252685546875,-0.81048583984375,0.61016845703125 
 ,-0.02655029296875,-0.8094482421875,0.60919189453125 
 ,-0.0262451171875,-0.810302734375,0.60760498046875 
 ,-0.02728271484375,-0.81207275390625,0.6043701171875 
 ,-0.0294189453125,-0.8121337890625,0.60528564453125 
 ,-0.02996826171875,-0.80926513671875,0.6072998046875 
 ,-0.03009033203125,-0.8094482421875,0.60687255859375 
 ,-0.02923583984375,-0.8106689453125,0.60546875 
 ,-0.02880859375,-0.8118896484375,0.6019287109375 
 ,-0.02557373046875,-0.81451416015625,0.60076904296875 
 ,-0.02520751953125,-0.8165283203125,0.60052490234375 
 ,-0.02532958984375,-0.81610107421875,0.605224609375 
 ,-0.02630615234375,-0.81475830078125,0.60687255859375 
 ,-0.02789306640625,-0.81549072265625,0.60675048828125 
 ,-0.02752685546875,-0.81622314453125,0.60968017578125 
 ,-0.024658203125,-0.82012939453125,0.609130859375 
 ,-0.02484130859375,-0.81671142578125,0.61041259765625 
 ,-0.02984619140625,-0.80633544921875,0.60968017578125 
 ,-0.0291748046875,-0.8143310546875,0.59381103515625 
 ,-0.024169921875,-0.82073974609375,0.59381103515625 
 ,-0.0244140625,-0.79364013671875,0.6126708984375 
 ,-0.0213623046875,-0.80029296875,0.58868408203125 
 ,-0.018310546875,-0.82855224609375,0.588623046875 
 ,-0.02081298828125,-0.837646484375,0.5946044921875 
 ,-0.02655029296875,-0.8270263671875,0.5919189453125 
 ,-0.03240966796875,-0.82135009765625,0.5858154296875 
 ,-0.0255126953125,-0.82763671875,0.58612060546875 
 ,-0.0203857421875,-0.8280029296875,0.58819580078125 
 ,-0.01513671875,-0.82257080078125,0.5865478515625 
 ,-0.017578125,-0.8231201171875,0.58184814453125 
 ,-0.02294921875,-0.82769775390625,0.58233642578125 
 ,-0.026123046875,-0.828125,0.5811767578125 
 ,-0.02459716796875,-0.8284912109375,0.57861328125 
 ,-0.02197265625,-0.83001708984375,0.5794677734375 
 ,-0.02142333984375,-0.8299560546875,0.57940673828125 
 ,-0.02117919921875,-0.83074951171875,0.57611083984375 
 ,-0.02178955078125,-0.82891845703125,0.57421875 
 ,-0.0205078125,-0.82830810546875,0.57049560546875 
 ,-0.02069091796875,-0.8343505859375,0.56634521484375 
 ,-0.01983642578125,-0.83831787109375,0.564697265625 
 ,-0.01959228515625,-0.83941650390625,0.56134033203125 
 ,-0.0201416015625,-0.83966064453125,0.56170654296875 
 ,-0.01953125,-0.84320068359375,0.5599365234375 
 ,-0.020263671875,-0.851806640625,0.54595947265625 
51761.0,-0.0191650390625,-0.86041259765625,0.54437255859375 
 ,-0.01934814453125,-0.855224609375,0.5631103515625 
 ,-0.01995849609375,-0.83184814453125,0.57952880859375 
 ,-0.0106201171875,-0.84814453125,0.5306396484375 
 ,-0.01202392578125,-0.8536376953125,0.5457763671875 
 ,-0.00927734375,-0.87054443359375,0.5400390625 
 ,-0.01458740234375,-0.84954833984375,0.56048583984375 
 ,-0.0257568359375,-0.84320068359375,0.551513671875 
 ,-0.02099609375,-0.85357666015625,0.54150390625 
 ,-0.0162353515625,-0.85546875,0.5418701171875 
 ,-0.014892578125,-0.85540771484375,0.5440673828125 
 ,-0.0155029296875,-0.85589599609375,0.54156494140625 
 ,-0.01763916015625,-0.85650634765625,0.5390625 
 ,-0.01617431640625,-0.8543701171875,0.54107666015625 
 ,-0.0155029296875,-0.85479736328125,0.5362548828125 
 ,-0.01580810546875,-0.85528564453125,0.53875732421875 
 ,-0.01617431640625,-0.85546875,0.5390625 
 ,-0.01605224609375,-0.85888671875,0.53741455078125 
 ,-0.01544189453125,-0.8614501953125,0.53289794921875 
 ,-0.01788330078125,-0.86260986328125,0.53173828125 
 ,-0.01812744140625,-0.8642578125,0.52850341796875 
 ,-0.01904296875,-0.86724853515625,0.5262451171875 
 ,-0.0198974609375,-0.868896484375,0.52593994140625 
 ,-0.0203857421875,-0.87042236328125,0.5244140625 
 ,-0.01947021484375,-0.87109375,0.52392578125 
 ,-0.01873779296875,-0.8702392578125,0.52410888671875 
 ,-0.01776123046875,-0.87066650390625,0.52117919921875 
 ,-0.0166015625,-0.87042236328125,0.51971435546875 
 ,-0.01409912109375,-0.87091064453125,0.5194091796875 
 ,-0.01446533203125,-0.86932373046875,0.5220947265625 
 ,-0.015380859375,-0.86737060546875,0.52056884765625 
 ,-0.015625,-0.86724853515625,0.5223388671875 
 ,-0.0166015625,-0.87255859375,0.51776123046875 
 ,-0.0150146484375,-0.8775634765625,0.51593017578125 
 ,-0.0181884765625,-0.87286376953125,0.51812744140625 
 ,-0.01934814453125,-0.8670654296875,0.5147705078125 
 ,-0.01446533203125,-0.87738037109375,0.4920654296875 
 ,-0.012939453125,-0.88232421875,0.50341796875 
 ,-0.01171875,-0.870361328125,0.51898193359375 
 ,-0.00506591796875,-0.868896484375,0.505859375 
 ,-0.00628662109375,-0.8836669921875,0.498291015625 
 ,-0.01129150390625,-0.89141845703125,0.50286865234375 
 ,-0.02044677734375,-0.88323974609375,0.50787353515625 
 ,-0.02716064453125,-0.8804931640625,0.4964599609375 
 ,-0.023681640625,-0.88140869140625,0.48980712890625 
 ,-0.0126953125,-0.87957763671875,0.4957275390625 
 ,-0.004150390625,-0.88079833984375,0.49578857421875 
 ,-0.0028076171875,-0.88330078125,0.49188232421875 
 ,-0.006103515625,-0.8858642578125,0.48956298828125 
 ,-0.00885009765625,-0.88568115234375,0.49169921875 
 ,-0.011474609375,-0.88568115234375,0.4915771484375 
 ,-0.01385498046875,-0.88433837890625,0.4901123046875 
 ,-0.01275634765625,-0.88238525390625,0.4935302734375 
 ,-0.01043701171875,-0.88427734375,0.49456787109375 
 ,-0.010009765625,-0.8843994140625,0.48931884765625 
 ,-0.00921630859375,-0.88525390625,0.48736572265625 
 ,-0.00958251953125,-0.886962890625,0.48638916015625 
 ,-0.00921630859375,-0.88916015625,0.4873046875 
 ,-0.00946044921875,-0.88897705078125,0.4901123046875 
 ,-0.00958251953125,-0.88555908203125,0.4874267578125 
 ,-0.0106201171875,-0.88623046875,0.4815673828125 
 ,-0.010986328125,-0.890380859375,0.47845458984375 
 ,-0.01129150390625,-0.893798828125,0.48040771484375 
 ,-0.016357421875,-0.87921142578125,0.51556396484375 
 ,-0.01507568359375,-0.87359619140625,0.48797607421875 
 ,-0.01055908203125,-0.89288330078125,0.47540283203125 
 ,-0.0084228515625,-0.8922119140625,0.4873046875 
 ,-0.0020751953125,-0.9012451171875,0.48345947265625 
 ,-0.01080322265625,-0.8853759765625,0.503173828125 
 ,-0.01702880859375,-0.88201904296875,0.4786376953125 
 ,-0.0101318359375,-0.8895263671875,0.4739990234375 
 ,-0.00726318359375,-0.89312744140625,0.48828125 
 ,-0.0050048828125,-0.88983154296875,0.49017333984375 
 ,-0.0052490234375,-0.88739013671875,0.4869384765625 
 ,-0.0096435546875,-0.88690185546875,0.4849853515625 
 ,-0.01025390625,-0.8880615234375,0.4840087890625 
 ,-0.0101318359375,-0.88739013671875,0.48309326171875 
 ,-0.00994873046875,-0.8853759765625,0.4822998046875 
 ,-0.00762939453125,-0.88604736328125,0.4810791015625 
 ,-0.00701904296875,-0.88909912109375,0.47808837890625 
 ,-0.0079345703125,-0.890380859375,0.474609375 
 ,-0.0081787109375,-0.89215087890625,0.474609375 
 ,-0.00726318359375,-0.89263916015625,0.47662353515625 
 ,-0.0084228515625,-0.8931884765625,0.477783203125 
 ,-0.01080322265625,-0.89532470703125,0.4805908203125 
 ,-0.01324462890625,-0.89813232421875,0.47747802734375 
 ,-0.01177978515625,-0.90045166015625,0.4732666015625 
 ,-0.01153564453125,-0.90283203125,0.47314453125 
 ,-0.0123291015625,-0.9029541015625,0.4752197265625 
 ,-0.01177978515625,-0.90185546875,0.477294921875 
 ,-0.009033203125,-0.899658203125,0.4791259765625 
 ,-0.008056640625,-0.89990234375,0.48126220703125 
 ,-0.006103515625,-0.90020751953125,0.482177734375 
 ,-0.00628662109375,-0.89892578125,0.48199462890625 
 ,-0.0062255859375,-0.895751953125,0.4835205078125 
 ,-0.00750732421875,-0.893310546875,0.4822998046875 
 ,-0.00799560546875,-0.88836669921875,0.4833984375 
 ,-0.0091552734375,-0.8875732421875,0.48248291015625 
 ,-0.01007080078125,-0.88800048828125,0.477783203125 
 ,-0.00872802734375,-0.89141845703125,0.4718017578125 
 ,-0.00897216796875,-0.88934326171875,0.47784423828125 
 ,-0.00830078125,-0.88482666015625,0.47894287109375 
 ,-0.00726318359375,-0.88702392578125,0.46185302734375 
 ,-0.00921630859375,-0.89111328125,0.4703369140625 
 ,-0.00750732421875,-0.88427734375,0.4755859375 
 ,-0.00439453125,-0.88623046875,0.46759033203125 
 ,-0.00445556640625,-0.89337158203125,0.4671630859375 
 ,-0.0062255859375,-0.89825439453125,0.4716796875 
 ,-0.017578125,-0.89813232421875,0.47369384765625 
 ,-0.02349853515625,-0.8978271484375,0.467041015625 
 ,-0.02178955078125,-0.89996337890625,0.46405029296875 
 ,-0.01409912109375,-0.898681640625,0.46710205078125 
 ,-0.006103515625,-0.8985595703125,0.46417236328125 
 ,-0.0059814453125,-0.89984130859375,0.458251953125 
 ,-0.00933837890625,-0.90338134765625,0.45477294921875 
 ,-0.0113525390625,-0.907470703125,0.45440673828125 
 ,-0.01220703125,-0.90582275390625,0.4541015625 
 ,-0.012939453125,-0.90313720703125,0.45343017578125 
 ,-0.01202392578125,-0.900634765625,0.4561767578125 
 ,-0.01312255859375,-0.90155029296875,0.4564208984375 
 ,-0.01446533203125,-0.90252685546875,0.4544677734375 
 ,-0.0150146484375,-0.8997802734375,0.45599365234375 
 ,-0.017333984375,-0.90216064453125,0.4608154296875 
 ,-0.01788330078125,-0.903564453125,0.461669921875 
 ,-0.015869140625,-0.90478515625,0.45941162109375 
 ,-0.012939453125,-0.9041748046875,0.45501708984375 
 ,-0.01031494140625,-0.9044189453125,0.45440673828125 
 ,-0.00604248046875,-0.9010009765625,0.4573974609375 
 ,-0.0069580078125,-0.8970947265625,0.474365234375 
 ,-0.01068115234375,-0.878662109375,0.50872802734375 
 ,-0.009521484375,-0.88671875,0.45611572265625 
 ,-0.00738525390625,-0.8936767578125,0.46173095703125 
 ,-0.0003662109375,-0.8968505859375,0.4573974609375 
 ,-0.0006103515625,-0.90606689453125,0.4671630859375 
 ,-0.01251220703125,-0.89447021484375,0.4808349609375 
 ,-0.014892578125,-0.8909912109375,0.4642333984375 
 ,-0.0133056640625,-0.89727783203125,0.46075439453125 
 ,-0.0118408203125,-0.9012451171875,0.465087890625 
 ,-0.00927734375,-0.896728515625,0.4693603515625 
 ,-0.00726318359375,-0.89447021484375,0.4649658203125 
 ,-0.0068359375,-0.8984375,0.46209716796875 
 ,-0.0108642578125,-0.9007568359375,0.463623046875 
 ,-0.01214599609375,-0.89862060546875,0.46533203125 
 ,-0.010986328125,-0.89593505859375,0.46429443359375 
 ,-0.01043701171875,-0.8970947265625,0.46368408203125 
 ,-0.0103759765625,-0.8984375,0.46392822265625 
 ,-0.01055908203125,-0.89788818359375,0.46197509765625 
 ,-0.0107421875,-0.8978271484375,0.46136474609375 
 ,-0.009521484375,-0.9005126953125,0.4639892578125 
 ,-0.0111083984375,-0.900390625,0.4642333984375 
 ,-0.0128173828125,-0.900146484375,0.46051025390625 
 ,-0.0125732421875,-0.90057373046875,0.46038818359375 
 ,-0.011474609375,-0.90155029296875,0.458740234375 
 ,-0.00921630859375,-0.90252685546875,0.458984375 
 ,-0.00927734375,-0.902099609375,0.4576416015625 
 ,-0.00860595703125,-0.90081787109375,0.4571533203125 
 ,-0.008544921875,-0.900146484375,0.45928955078125 
 ,-0.00750732421875,-0.89996337890625,0.45770263671875 
 ,-0.0074462890625,-0.90179443359375,0.45758056640625 
 ,-0.00738525390625,-0.90283203125,0.45770263671875 
 ,-0.00775146484375,-0.8997802734375,0.4573974609375 
 ,-0.0074462890625,-0.90032958984375,0.45654296875 
 ,-0.008056640625,-0.899658203125,0.45770263671875 
 ,-0.0081787109375,-0.90020751953125,0.4586181640625 
 ,-0.00689697265625,-0.90240478515625,0.45379638671875 
 ,-0.00762939453125,-0.90521240234375,0.45098876953125 
 ,-0.00860595703125,-0.90289306640625,0.450439453125 
 ,-0.00933837890625,-0.9017333984375,0.45111083984375 
 ,-0.00885009765625,-0.90130615234375,0.45013427734375 
 ,-0.00860595703125,-0.9012451171875,0.448486328125 
 ,-0.00726318359375,-0.90399169921875,0.454345703125 
 ,-0.00531005859375,-0.903564453125,0.45758056640625 
 ,-0.00396728515625,-0.9044189453125,0.44793701171875 
 ,-0.0035400390625,-0.9083251953125,0.44439697265625 
 ,-0.001708984375,-0.90325927734375,0.46282958984375 
 ,-0.00177001953125,-0.9017333984375,0.44696044921875 
 ,-0.0078125,-0.9091796875,0.44384765625 
 ,-0.00604248046875,-0.9051513671875,0.452880859375 
 ,-0.0015869140625,-0.908935546875,0.4383544921875 
 ,-0.00152587890625,-0.91241455078125,0.44268798828125 
 ,-0.001953125,-0.91351318359375,0.44873046875 
 ,-0.0067138671875,-0.90972900390625,0.45672607421875 
 ,-0.0147705078125,-0.9080810546875,0.45013427734375 
 ,-0.01727294921875,-0.9124755859375,0.433349609375 
 ,-0.01165771484375,-0.91522216796875,0.43353271484375 
 ,-0.00238037109375,-0.91436767578125,0.436767578125 
 ,0.00213623046875,-0.9127197265625,0.42999267578125 
 ,0.0020751953125,-0.9132080078125,0.427734375 
 ,-0.001953125,-0.91351318359375,0.431884765625 
 ,-0.00323486328125,-0.91552734375,0.4356689453125 
 ,-0.0059814453125,-0.91534423828125,0.43359375 
 ,-0.00579833984375,-0.91461181640625,0.4322509765625 
 ,-0.0067138671875,-0.91497802734375,0.43267822265625 
 ,-0.00665283203125,-0.9146728515625,0.43267822265625 
 ,-0.005126953125,-0.912841796875,0.43194580078125 
 ,-0.00384521484375,-0.91302490234375,0.431396484375 
 ,-0.00384521484375,-0.914306640625,0.429931640625 
 ,-0.004150390625,-0.91485595703125,0.4300537109375 
 ,-0.0032958984375,-0.916259765625,0.4251708984375 
 ,-0.0030517578125,-0.91693115234375,0.42291259765625 
 ,-0.00140380859375,-0.9219970703125,0.422607421875 
 ,-0.0045166015625,-0.919921875,0.44671630859375 
 ,-0.00787353515625,-0.90087890625,0.45489501953125 
 ,-0.00689697265625,-0.92279052734375,0.39886474609375 
 ,-0.0040283203125,-0.91680908203125,0.4354248046875 
 ,0.00518798828125,-0.9219970703125,0.42144775390625 
 ,-0.00140380859375,-0.9189453125,0.43634033203125 
 ,-0.010986328125,-0.9097900390625,0.4412841796875 
 ,-0.0072021484375,-0.9088134765625,0.42852783203125 
 ,-0.0076904296875,-0.912109375,0.4315185546875 
 ,-0.0045166015625,-0.91790771484375,0.4337158203125 
 ,-0.00323486328125,-0.91583251953125,0.4302978515625 
 ,-0.00213623046875,-0.91357421875,0.42645263671875 
 ,-0.0037841796875,-0.9154052734375,0.43109130859375 
 ,-0.0057373046875,-0.914794921875,0.43255615234375 
 ,-0.00537109375,-0.91253662109375,0.43255615234375 
 ,-0.00469970703125,-0.91253662109375,0.42974853515625 
 ,-0.00543212890625,-0.9154052734375,0.427978515625 
 ,-0.00653076171875,-0.91693115234375,0.426025390625 
 ,-0.00640869140625,-0.91656494140625,0.42718505859375 
 ,-0.0059814453125,-0.9158935546875,0.4300537109375 
 ,-0.00689697265625,-0.9161376953125,0.43035888671875 
 ,-0.008056640625,-0.91595458984375,0.42926025390625 
 ,-0.0068359375,-0.915771484375,0.43157958984375 
 ,-0.00634765625,-0.9156494140625,0.43133544921875 
 ,-0.00592041015625,-0.915283203125,0.43011474609375 
 ,-0.00628662109375,-0.91656494140625,0.43115234375 
 ,-0.00714111328125,-0.9141845703125,0.43157958984375 
 ,-0.00616455078125,-0.91455078125,0.4320068359375 
 ,-0.005859375,-0.91644287109375,0.43170166015625 
 ,-0.00543212890625,-0.9161376953125,0.43231201171875 
 ,-0.0057373046875,-0.9149169921875,0.43304443359375 
 ,-0.0057373046875,-0.915283203125,0.4339599609375 
 ,-0.00640869140625,-0.91351318359375,0.4351806640625 
 ,-0.0047607421875,-0.9112548828125,0.4364013671875 
 ,-0.00372314453125,-0.91058349609375,0.4351806640625 
 ,-0.00567626953125,-0.91021728515625,0.435302734375 
 ,-0.00762939453125,-0.91156005859375,0.43475341796875 
 ,-0.00738525390625,-0.910888671875,0.4346923828125 
 ,-0.007568359375,-0.90924072265625,0.43359375 
 ,-0.00885009765625,-0.91070556640625,0.4337158203125 
 ,-0.010009765625,-0.9111328125,0.43463134765625 
 ,-0.008544921875,-0.91070556640625,0.43658447265625 
 ,-0.0074462890625,-0.9100341796875,0.43597412109375 
 ,-0.0059814453125,-0.9111328125,0.43621826171875 
 ,-0.0054931640625,-0.91217041015625,0.43902587890625 
 ,-0.00701904296875,-0.9119873046875,0.44268798828125 
 ,-0.00787353515625,-0.91204833984375,0.43267822265625 
 ,-0.007568359375,-0.9140625,0.42730712890625 
 ,-0.0078125,-0.91033935546875,0.44940185546875 
 ,-0.00799560546875,-0.90338134765625,0.44232177734375 
 ,-0.01007080078125,-0.9141845703125,0.42510986328125 
 ,-0.00579833984375,-0.914306640625,0.4365234375 
 ,-0.00360107421875,-0.9127197265625,0.4337158203125 
 ,-0.004150390625,-0.9151611328125,0.437255859375 
 ,-0.00579833984375,-0.912353515625,0.443115234375 
 ,-0.00244140625,-0.9146728515625,0.43927001953125 
 ,-0.00799560546875,-0.9132080078125,0.443603515625 
 ,-0.01568603515625,-0.90960693359375,0.43792724609375 
 ,-0.012939453125,-0.91265869140625,0.428955078125 
 ,-0.00616455078125,-0.913330078125,0.43182373046875 
 ,-6.103515625e-05,-0.9127197265625,0.43304443359375 
 ,0.001953125,-0.913330078125,0.42559814453125 
 ,0.00079345703125,-0.9141845703125,0.42681884765625 
 ,-0.002197265625,-0.9119873046875,0.42999267578125 
 ,-0.00360107421875,-0.91278076171875,0.4296875 
 ,-0.0020751953125,-0.914306640625,0.42584228515625 
 ,-0.001708984375,-0.91387939453125,0.4267578125 
 ,-0.00079345703125,-0.91387939453125,0.427734375 
 ,-0.00128173828125,-0.9141845703125,0.42547607421875 
 ,-0.0015869140625,-0.916259765625,0.424072265625 
 ,-0.001708984375,-0.9169921875,0.42254638671875 
 ,6.103515625e-05,-0.9163818359375,0.42376708984375 
 ,0.00103759765625,-0.91619873046875,0.42327880859375 
 ,0.001953125,-0.91497802734375,0.4180908203125 
 ,0.00372314453125,-0.91864013671875,0.41534423828125 
 ,-0.00146484375,-0.91790771484375,0.44171142578125 
 ,-0.00396728515625,-0.903564453125,0.44036865234375 
 ,-0.0003662109375,-0.92913818359375,0.393310546875 
 ,-0.0013427734375,-0.9189453125,0.43011474609375 
 ,0.009033203125,-0.92633056640625,0.41162109375 
 ,0.0042724609375,-0.92742919921875,0.4227294921875 
 ,-0.0052490234375,-0.9202880859375,0.4315185546875 
 ,-0.00390625,-0.91790771484375,0.41632080078125 
 ,-0.00421142578125,-0.9200439453125,0.4171142578125 
 ,-0.0006103515625,-0.925048828125,0.42327880859375 
 ,0.001708984375,-0.9219970703125,0.4193115234375 
 ,0.00054931640625,-0.9183349609375,0.4144287109375 
 ,-0.002685546875,-0.9195556640625,0.41876220703125 
 ,-0.0052490234375,-0.916748046875,0.4208984375 
 ,-0.00408935546875,-0.91571044921875,0.41705322265625 
 ,-0.0042724609375,-0.91815185546875,0.4156494140625 
 ,-0.00506591796875,-0.92236328125,0.415283203125 
 ,-0.0057373046875,-0.923095703125,0.4161376953125 
 ,-0.00262451171875,-0.9215087890625,0.4195556640625 
 ,-0.00250244140625,-0.922119140625,0.4200439453125 
 ,-0.00262451171875,-0.9246826171875,0.419677734375 
 ,-0.003662109375,-0.92431640625,0.41778564453125 
 ,-0.0025634765625,-0.9234619140625,0.41754150390625 
 ,-0.003173828125,-0.9229736328125,0.4185791015625 
 ,-0.00335693359375,-0.92022705078125,0.42083740234375 
 ,-0.00299072265625,-0.92022705078125,0.41949462890625 
 ,-0.0013427734375,-0.92010498046875,0.4197998046875 
 ,-0.00201416015625,-0.921875,0.41925048828125 
 ,-0.0013427734375,-0.92083740234375,0.42071533203125 
 ,-0.000732421875,-0.92010498046875,0.421630859375 
 ,-0.00103759765625,-0.9212646484375,0.4210205078125 
 ,-0.00103759765625,-0.9189453125,0.42437744140625 
 ,-0.0018310546875,-0.91668701171875,0.42474365234375 
 ,-0.00054931640625,-0.917236328125,0.42486572265625 
 ,-0.00030517578125,-0.91748046875,0.42608642578125 
 ,-0.000732421875,-0.9154052734375,0.4249267578125 
 ,0.0,-0.91461181640625,0.42498779296875 
 ,0.00067138671875,-0.9149169921875,0.42266845703125 
 ,0.00201416015625,-0.9141845703125,0.423095703125 
 ,0.0023193359375,-0.91448974609375,0.42333984375 
 ,0.00164794921875,-0.9150390625,0.42047119140625 
 ,0.00341796875,-0.91424560546875,0.42535400390625 
 ,0.00299072265625,-0.91131591796875,0.42919921875 
 ,0.00042724609375,-0.9114990234375,0.42047119140625 
 ,0.00054931640625,-0.91497802734375,0.40570068359375 
 ,0.00018310546875,-0.912841796875,0.40972900390625 
 ,0.0,-0.9100341796875,0.43194580078125 
 ,0.00213623046875,-0.91070556640625,0.4219970703125 
 ,0.00164794921875,-0.91680908203125,0.41424560546875 
 ,0.007080078125,-0.91339111328125,0.42010498046875 
 ,0.00933837890625,-0.9144287109375,0.4210205078125 
 ,0.00958251953125,-0.91888427734375,0.42547607421875 
 ,0.01080322265625,-0.9202880859375,0.42401123046875 
 ,0.01251220703125,-0.92279052734375,0.4185791015625 
 ,0.0068359375,-0.9202880859375,0.4210205078125 
 ,-0.0006103515625,-0.9197998046875,0.41693115234375 
 ,-0.00341796875,-0.9244384765625,0.40771484375 
 ,-0.00421142578125,-0.92547607421875,0.40863037109375 
 ,-0.0001220703125,-0.9241943359375,0.41400146484375 
 ,0.00433349609375,-0.9239501953125,0.4111328125 
 ,0.00823974609375,-0.927490234375,0.4061279296875 
 ,0.0059814453125,-0.93170166015625,0.4061279296875 
 ,0.00390625,-0.9324951171875,0.4046630859375 
 ,0.00323486328125,-0.933837890625,0.4019775390625 
64325.0,0.0025634765625,-0.93701171875,0.404296875 
 ,0.0028076171875,-0.93402099609375,0.40704345703125 
 ,0.001953125,-0.93121337890625,0.406494140625 
 ,0.0028076171875,-0.92864990234375,0.40545654296875 
 ,0.00347900390625,-0.927734375,0.40631103515625 
 ,0.00408935546875,-0.92852783203125,0.4105224609375 
 ,0.00347900390625,-0.92938232421875,0.4105224609375 
 ,0.00408935546875,-0.92938232421875,0.40863037109375 
 ,0.00445556640625,-0.931396484375,0.41217041015625 
 ,0.00115966796875,-0.916015625,0.45263671875 
 ,0.00189208984375,-0.91485595703125,0.42547607421875 
 ,0.003662109375,-0.9349365234375,0.41839599609375 
 ,0.00360107421875,-0.9144287109375,0.4532470703125 
 ,0.01287841796875,-0.92169189453125,0.4332275390625 
 ,0.001953125,-0.91552734375,0.4515380859375 
 ,-0.01141357421875,-0.90673828125,0.4544677734375 
 ,-0.0120849609375,-0.90228271484375,0.44305419921875 
 ,-0.00787353515625,-0.901123046875,0.44879150390625 
 ,-0.0040283203125,-0.9005126953125,0.455810546875 
 ,-0.00225830078125,-0.89898681640625,0.4522705078125 
 ,-0.00262451171875,-0.89923095703125,0.45318603515625 
 ,-0.0052490234375,-0.89801025390625,0.45733642578125 
 ,-0.00482177734375,-0.89752197265625,0.4617919921875 
 ,-0.00482177734375,-0.89501953125,0.4644775390625 
 ,-0.00390625,-0.89501953125,0.46630859375 
 ,-0.00408935546875,-0.89581298828125,0.4688720703125 
 ,-0.0072021484375,-0.8955078125,0.46783447265625 
 ,-0.00897216796875,-0.89404296875,0.4686279296875 
 ,-0.00970458984375,-0.891845703125,0.4683837890625 
 ,-0.01019287109375,-0.892333984375,0.47064208984375 
 ,-0.01116943359375,-0.8936767578125,0.47149658203125 
 ,-0.0115966796875,-0.8935546875,0.47222900390625 
 ,-0.010498046875,-0.89276123046875,0.4744873046875 
 ,-0.00933837890625,-0.89288330078125,0.4771728515625 
 ,-0.00885009765625,-0.8916015625,0.4835205078125 
 ,-0.009765625,-0.8912353515625,0.48291015625 
 ,-0.01251220703125,-0.89093017578125,0.48712158203125 
 ,-0.013427734375,-0.88848876953125,0.49176025390625 
 ,-0.01324462890625,-0.88543701171875,0.49114990234375 
 ,-0.01202392578125,-0.8846435546875,0.49365234375 
 ,-0.011962890625,-0.88507080078125,0.494140625 
 ,-0.01385498046875,-0.88299560546875,0.49664306640625 
 ,-0.01422119140625,-0.87994384765625,0.5020751953125 
 ,-0.01300048828125,-0.8758544921875,0.50640869140625 
 ,-0.01025390625,-0.87451171875,0.50604248046875 
 ,-0.011474609375,-0.87347412109375,0.50616455078125 
 ,-0.0106201171875,-0.87701416015625,0.50616455078125 
 ,-0.010986328125,-0.87774658203125,0.5081787109375 
 ,-0.01190185546875,-0.875,0.51373291015625 
 ,-0.01361083984375,-0.87115478515625,0.511474609375 
 ,-0.01507568359375,-0.87432861328125,0.50152587890625 
 ,-0.017578125,-0.8726806640625,0.51092529296875 
 ,-0.0174560546875,-0.8729248046875,0.51043701171875 
 ,-0.01568603515625,-0.88006591796875,0.49871826171875 
 ,-0.01287841796875,-0.8798828125,0.5010986328125 
 ,-0.010498046875,-0.86895751953125,0.5115966796875 
 ,-0.0089111328125,-0.867431640625,0.5150146484375 
 ,-0.01422119140625,-0.871337890625,0.51519775390625 
 ,-0.01629638671875,-0.87701416015625,0.50946044921875 
 ,-0.01416015625,-0.87603759765625,0.51397705078125 
 ,-0.01800537109375,-0.86785888671875,0.52239990234375 
 ,-0.0224609375,-0.869384765625,0.5184326171875 
 ,-0.01971435546875,-0.87646484375,0.510009765625 
 ,-0.01397705078125,-0.87506103515625,0.51568603515625 
 ,-0.01055908203125,-0.87237548828125,0.5169677734375 
 ,-0.01080322265625,-0.8724365234375,0.51654052734375 
 ,-0.013671875,-0.87255859375,0.517333984375 
 ,-0.01324462890625,-0.87286376953125,0.51837158203125 
 ,-0.01220703125,-0.87188720703125,0.51812744140625 
 ,-0.01336669921875,-0.869873046875,0.52020263671875 
 ,-0.0159912109375,-0.86614990234375,0.5220947265625 
 ,-0.01641845703125,-0.86370849609375,0.5234375 
 ,-0.01727294921875,-0.863037109375,0.52294921875 
 ,-0.01873779296875,-0.8619384765625,0.52459716796875 
 ,-0.01690673828125,-0.86151123046875,0.524169921875 
 ,-0.01458740234375,-0.86492919921875,0.52178955078125 
 ,-0.01263427734375,-0.8692626953125,0.52093505859375 
 ,-0.01123046875,-0.8746337890625,0.51593017578125 
 ,-0.01300048828125,-0.873779296875,0.5284423828125 
 ,-0.01702880859375,-0.84417724609375,0.5576171875 
 ,-0.00836181640625,-0.86871337890625,0.5067138671875 
 ,-0.01141357421875,-0.87158203125,0.53729248046875 
 ,-0.009521484375,-0.8668212890625,0.53436279296875 
 ,-0.00494384765625,-0.86968994140625,0.5302734375 
 ,-0.0201416015625,-0.8568115234375,0.5421142578125 
 ,-0.0238037109375,-0.86090087890625,0.53167724609375 
 ,-0.01678466796875,-0.86456298828125,0.5313720703125 
 ,-0.01190185546875,-0.8582763671875,0.54339599609375 
 ,-0.01123046875,-0.85040283203125,0.54290771484375 
 ,-0.0146484375,-0.85308837890625,0.54583740234375 
 ,-0.0166015625,-0.85589599609375,0.54913330078125 
 ,-0.0145263671875,-0.8533935546875,0.55078125 
 ,-0.01275634765625,-0.84912109375,0.5513916015625 
 ,-0.01556396484375,-0.846923828125,0.552001953125 
 ,-0.01568603515625,-0.848876953125,0.5498046875 
 ,-0.01629638671875,-0.84515380859375,0.5494384765625 
 ,-0.0174560546875,-0.84429931640625,0.55023193359375 
 ,-0.01519775390625,-0.85003662109375,0.55133056640625 
 ,-0.01611328125,-0.84710693359375,0.55340576171875 
 ,-0.01806640625,-0.84564208984375,0.55523681640625 
 ,-0.01837158203125,-0.84844970703125,0.559326171875 
 ,-0.01739501953125,-0.85028076171875,0.55938720703125 
 ,-0.01666259765625,-0.84869384765625,0.5574951171875 
 ,-0.0159912109375,-0.84564208984375,0.56011962890625 
 ,-0.01519775390625,-0.84423828125,0.56109619140625 
 ,-0.01287841796875,-0.84576416015625,0.56317138671875 
 ,-0.01165771484375,-0.8466796875,0.56231689453125 
 ,-0.0125732421875,-0.8421630859375,0.56268310546875 
 ,-0.01495361328125,-0.8392333984375,0.5640869140625 
 ,-0.01397705078125,-0.83990478515625,0.5606689453125 
 ,-0.015380859375,-0.8404541015625,0.56231689453125 
 ,-0.0159912109375,-0.83837890625,0.57049560546875 
 ,-0.01483154296875,-0.83612060546875,0.58099365234375 
 ,-0.0146484375,-0.83563232421875,0.58221435546875 
 ,-0.01593017578125,-0.8359375,0.57025146484375 
 ,-0.01690673828125,-0.84161376953125,0.55572509765625 
 ,-0.01513671875,-0.84600830078125,0.554443359375 
 ,-0.01177978515625,-0.84088134765625,0.56781005859375 
 ,-0.00982666015625,-0.82952880859375,0.5738525390625 
 ,-0.0098876953125,-0.83197021484375,0.56866455078125 
 ,-0.014404296875,-0.83392333984375,0.58087158203125 
 ,-0.01727294921875,-0.83135986328125,0.57525634765625 
 ,-0.0152587890625,-0.83734130859375,0.56768798828125 
 ,-0.012451171875,-0.8377685546875,0.57476806640625 
 ,-0.01251220703125,-0.83758544921875,0.57598876953125 
 ,-0.015869140625,-0.83953857421875,0.5694580078125 
 ,-0.0185546875,-0.8431396484375,0.5638427734375 
 ,-0.0147705078125,-0.84100341796875,0.56640625 
 ,-0.01007080078125,-0.83734130859375,0.573974609375 
 ,-0.0067138671875,-0.832763671875,0.58013916015625 
 ,-0.00885009765625,-0.83282470703125,0.57745361328125 
 ,-0.0120849609375,-0.83416748046875,0.57586669921875 
 ,-0.01336669921875,-0.83697509765625,0.57489013671875 
 ,-0.0130615234375,-0.83233642578125,0.58013916015625 
 ,-0.01434326171875,-0.82818603515625,0.5811767578125 
 ,-0.01458740234375,-0.82769775390625,0.5816650390625 
 ,-0.01519775390625,-0.83074951171875,0.581298828125 
 ,-0.01507568359375,-0.83062744140625,0.5787353515625 
 ,-0.01470947265625,-0.82757568359375,0.5804443359375 
 ,-0.01251220703125,-0.82611083984375,0.58221435546875 
 ,-0.01007080078125,-0.82861328125,0.57928466796875 
 ,-0.00946044921875,-0.83526611328125,0.57720947265625 
 ,-0.01226806640625,-0.83428955078125,0.5877685546875 
 ,-0.01531982421875,-0.8095703125,0.60791015625 
 ,-0.00933837890625,-0.827392578125,0.564453125 
 ,-0.01171875,-0.83526611328125,0.5897216796875 
 ,-0.01153564453125,-0.83050537109375,0.59100341796875 
 ,-0.00494384765625,-0.8330078125,0.59075927734375 
 ,-0.0252685546875,-0.82012939453125,0.59149169921875 
 ,-0.02252197265625,-0.8272705078125,0.58270263671875 
 ,-0.012451171875,-0.83209228515625,0.587158203125 
 ,-0.00836181640625,-0.82110595703125,0.596923828125 
 ,-0.00909423828125,-0.81341552734375,0.60089111328125 
 ,-0.01434326171875,-0.81549072265625,0.60296630859375 
 ,-0.016357421875,-0.81640625,0.60772705078125 
 ,-0.01556396484375,-0.81072998046875,0.6092529296875 
 ,-0.0150146484375,-0.8104248046875,0.6060791015625 
 ,-0.0166015625,-0.81201171875,0.61114501953125 
 ,-0.0146484375,-0.81207275390625,0.61639404296875 
 ,-0.0133056640625,-0.81060791015625,0.614990234375 
 ,-0.01483154296875,-0.8082275390625,0.61279296875 
 ,-0.01531982421875,-0.80291748046875,0.61199951171875 
 ,-0.01690673828125,-0.8026123046875,0.615966796875 
 ,-0.01800537109375,-0.804443359375,0.6175537109375 
 ,-0.01678466796875,-0.8067626953125,0.6112060546875 
 ,-0.01763916015625,-0.80438232421875,0.613525390625 
 ,-0.01837158203125,-0.80303955078125,0.6163330078125 
 ,-0.0174560546875,-0.80316162109375,0.61639404296875 
 ,-0.019287109375,-0.8021240234375,0.61724853515625 
 ,-0.01898193359375,-0.80352783203125,0.620361328125 
 ,-0.01861572265625,-0.7998046875,0.62109375 
 ,-0.0191650390625,-0.79876708984375,0.62188720703125 
 ,-0.017822265625,-0.7982177734375,0.62725830078125 
 ,-0.0184326171875,-0.79693603515625,0.6312255859375 
 ,-0.01727294921875,-0.79669189453125,0.63177490234375 
 ,-0.01788330078125,-0.79644775390625,0.6279296875 
 ,-0.0189208984375,-0.79901123046875,0.6131591796875 
 ,-0.018310546875,-0.8013916015625,0.601806640625 
 ,-0.015625,-0.80126953125,0.61529541015625 
 ,-0.0137939453125,-0.79022216796875,0.628662109375 
 ,-0.0185546875,-0.78564453125,0.6343994140625 
 ,-0.02276611328125,-0.788818359375,0.63458251953125 
 ,-0.020751953125,-0.8011474609375,0.61907958984375 
 ,-0.0191650390625,-0.810546875,0.6141357421875 
 ,-0.01776123046875,-0.808837890625,0.6226806640625 
 ,-0.01739501953125,-0.803466796875,0.624755859375 
 ,-0.02191162109375,-0.80023193359375,0.61859130859375 
 ,-0.0201416015625,-0.80084228515625,0.61956787109375 
 ,-0.01580810546875,-0.7999267578125,0.6209716796875 
 ,-0.0140380859375,-0.79852294921875,0.62371826171875 
 ,-0.01531982421875,-0.7987060546875,0.6229248046875 
 ,-0.01617431640625,-0.80029296875,0.62066650390625 
 ,-0.0184326171875,-0.80126953125,0.6175537109375 
 ,-0.01788330078125,-0.797607421875,0.61859130859375 
 ,-0.01568603515625,-0.79412841796875,0.62042236328125 
 ,-0.01776123046875,-0.794677734375,0.6219482421875 
 ,-0.01727294921875,-0.794677734375,0.62237548828125 
 ,-0.01788330078125,-0.796142578125,0.6209716796875 
 ,-0.01751708984375,-0.7987060546875,0.61932373046875 
 ,-0.01873779296875,-0.79949951171875,0.619140625 
 ,-0.01812744140625,-0.803466796875,0.61749267578125 
 ,-0.01727294921875,-0.8084716796875,0.6146240234375 
 ,-0.017333984375,-0.80841064453125,0.61199951171875 
 ,-0.014892578125,-0.80938720703125,0.61260986328125 
 ,-0.015869140625,-0.79949951171875,0.63397216796875 
 ,-0.01727294921875,-0.7811279296875,0.6241455078125 
 ,-0.01251220703125,-0.8026123046875,0.603759765625 
 ,-0.02239990234375,-0.79766845703125,0.63446044921875 
 ,-0.01043701171875,-0.81414794921875,0.61578369140625 
 ,-0.01953125,-0.80389404296875,0.63055419921875 
 ,-0.03216552734375,-0.79791259765625,0.61376953125 
 ,-0.01690673828125,-0.8072509765625,0.61468505859375 
 ,-0.0155029296875,-0.80474853515625,0.62139892578125 
 ,-0.0155029296875,-0.79595947265625,0.62506103515625 
 ,-0.01947021484375,-0.792724609375,0.626708984375 
 ,-0.0244140625,-0.7935791015625,0.63037109375 
 ,-0.02239990234375,-0.7950439453125,0.62554931640625 
 ,-0.0205078125,-0.7962646484375,0.62554931640625 
 ,-0.01837158203125,-0.79681396484375,0.62957763671875 
 ,-0.01953125,-0.79473876953125,0.63018798828125 
 ,-0.01995849609375,-0.79541015625,0.62957763671875 
 ,-0.02044677734375,-0.79644775390625,0.6297607421875 
 ,-0.019287109375,-0.79644775390625,0.62738037109375 
 ,-0.01788330078125,-0.79815673828125,0.6263427734375 
 ,-0.0179443359375,-0.79876708984375,0.6290283203125 
 ,-0.02032470703125,-0.79815673828125,0.62677001953125 
 ,-0.01959228515625,-0.79840087890625,0.62738037109375 
 ,-0.01861572265625,-0.8011474609375,0.628173828125 
 ,-0.02191162109375,-0.80059814453125,0.62786865234375 
 ,-0.02197265625,-0.799072265625,0.62835693359375 
 ,-0.02362060546875,-0.7984619140625,0.6273193359375 
 ,-0.0225830078125,-0.79693603515625,0.62652587890625 
 ,-0.0234375,-0.79534912109375,0.63031005859375 
 ,-0.02301025390625,-0.79351806640625,0.63409423828125 
 ,-0.020751953125,-0.79547119140625,0.63507080078125 
 ,-0.01885986328125,-0.79693603515625,0.631591796875 
 ,-0.0184326171875,-0.79498291015625,0.623779296875 
 ,-0.01971435546875,-0.7972412109375,0.6151123046875 
 ,-0.018310546875,-0.8031005859375,0.61627197265625 
 ,-0.017578125,-0.79315185546875,0.62518310546875 
 ,-0.01922607421875,-0.78326416015625,0.63677978515625 
 ,-0.024658203125,-0.7882080078125,0.63128662109375 
 ,-0.02386474609375,-0.80303955078125,0.616943359375 
 ,-0.0234375,-0.812255859375,0.61785888671875 
 ,-0.02801513671875,-0.8038330078125,0.6258544921875 
 ,-0.03179931640625,-0.79730224609375,0.6229248046875 
 ,-0.0277099609375,-0.80133056640625,0.61578369140625 
 ,-0.0196533203125,-0.80810546875,0.6156005859375 
 ,-0.0166015625,-0.80615234375,0.6170654296875 
 ,-0.019775390625,-0.8011474609375,0.620361328125 
 ,-0.0220947265625,-0.80242919921875,0.62030029296875 
 ,-0.0216064453125,-0.806396484375,0.61871337890625 
 ,-0.01971435546875,-0.80584716796875,0.61810302734375 
 ,-0.02001953125,-0.80438232421875,0.61712646484375 
 ,-0.0205078125,-0.80364990234375,0.61871337890625 
 ,-0.0213623046875,-0.8033447265625,0.61865234375 
 ,-0.0208740234375,-0.80084228515625,0.61834716796875 
 ,-0.02191162109375,-0.798828125,0.619873046875 
 ,-0.022216796875,-0.7996826171875,0.61572265625 
 ,-0.021728515625,-0.803955078125,0.61700439453125 
 ,-0.02099609375,-0.804931640625,0.617431640625 
 ,-0.01983642578125,-0.8062744140625,0.615478515625 
 ,-0.01861572265625,-0.80963134765625,0.61273193359375 
 ,-0.0198974609375,-0.81488037109375,0.610595703125 
 ,-0.022216796875,-0.80804443359375,0.62799072265625 
 ,-0.023681640625,-0.78369140625,0.6331787109375 
 ,-0.0164794921875,-0.8048095703125,0.598388671875 
 ,-0.023193359375,-0.8045654296875,0.63116455078125 
 ,-0.0125732421875,-0.81524658203125,0.6177978515625 
 ,-0.019287109375,-0.804443359375,0.62799072265625 
 ,-0.03570556640625,-0.79461669921875,0.6143798828125 
 ,-0.02154541015625,-0.80816650390625,0.61468505859375 
 ,-0.018310546875,-0.80682373046875,0.62200927734375 
 ,-0.0184326171875,-0.79595947265625,0.62554931640625 
 ,-0.02008056640625,-0.79522705078125,0.6253662109375 
 ,-0.02490234375,-0.8013916015625,0.624267578125 
 ,-0.0235595703125,-0.80316162109375,0.624267578125 
 ,-0.02069091796875,-0.7982177734375,0.62872314453125 
 ,-0.01885986328125,-0.7957763671875,0.63055419921875 
 ,-0.0186767578125,-0.79766845703125,0.63031005859375 
 ,-0.021484375,-0.79705810546875,0.63104248046875 
 ,-0.02288818359375,-0.7938232421875,0.63116455078125 
 ,-0.0224609375,-0.7928466796875,0.62841796875 
 ,-0.02288818359375,-0.794189453125,0.62603759765625 
 ,-0.0230712890625,-0.79302978515625,0.6290283203125 
 ,-0.0264892578125,-0.79095458984375,0.63238525390625 
 ,-0.024169921875,-0.7921142578125,0.62921142578125 
 ,-0.0242919921875,-0.79669189453125,0.6298828125 
 ,-0.02508544921875,-0.79876708984375,0.63140869140625 
 ,-0.02301025390625,-0.79742431640625,0.62835693359375 
 ,-0.024658203125,-0.79510498046875,0.62652587890625 
 ,-0.026123046875,-0.795654296875,0.62945556640625 
 ,-0.0269775390625,-0.79486083984375,0.63262939453125 
 ,-0.02435302734375,-0.7947998046875,0.63055419921875 
 ,-0.02423095703125,-0.797607421875,0.6309814453125 
 ,-0.02618408203125,-0.79443359375,0.62689208984375 
 ,-0.02813720703125,-0.793701171875,0.62322998046875 
 ,-0.027099609375,-0.80389404296875,0.61181640625 
 ,-0.02142333984375,-0.80279541015625,0.62017822265625 
 ,-0.02301025390625,-0.77911376953125,0.63665771484375 
 ,-0.025146484375,-0.78509521484375,0.62872314453125 
 ,-0.02490234375,-0.80242919921875,0.62274169921875 
 ,-0.02703857421875,-0.8114013671875,0.61474609375 
 ,-0.030517578125,-0.80767822265625,0.61572265625 
 ,-0.03369140625,-0.80108642578125,0.6158447265625 
 ,-0.02825927734375,-0.80322265625,0.61456298828125 
 ,-0.021240234375,-0.8074951171875,0.61761474609375 
 ,-0.01837158203125,-0.8026123046875,0.6182861328125 
 ,-0.0205078125,-0.80224609375,0.61785888671875 
 ,-0.0247802734375,-0.80743408203125,0.617919921875 
 ,-0.02587890625,-0.81292724609375,0.615234375 
 ,-0.0238037109375,-0.809326171875,0.6143798828125 
 ,-0.02313232421875,-0.8062744140625,0.6171875 
 ,-0.0233154296875,-0.80517578125,0.6190185546875 
 ,-0.02459716796875,-0.80413818359375,0.61468505859375 
 ,-0.0235595703125,-0.80426025390625,0.6160888671875 
 ,-0.02288818359375,-0.8026123046875,0.61175537109375 
 ,-0.0216064453125,-0.80047607421875,0.60943603515625 
 ,-0.0240478515625,-0.80462646484375,0.6121826171875 
 ,-0.0223388671875,-0.80487060546875,0.61004638671875 
 ,-0.020751953125,-0.80535888671875,0.610595703125 
 ,-0.0213623046875,-0.808349609375,0.608642578125 
 ,-0.02130126953125,-0.81396484375,0.6063232421875 
 ,-0.021484375,-0.8192138671875,0.60687255859375 
 ,-0.02606201171875,-0.80462646484375,0.636962890625 
 ,-0.02252197265625,-0.79803466796875,0.6087646484375 
 ,-0.01666259765625,-0.8206787109375,0.5982666015625 
 ,-0.0228271484375,-0.81658935546875,0.6202392578125 
 ,-0.0137939453125,-0.822509765625,0.61614990234375 
 ,-0.03076171875,-0.80316162109375,0.61798095703125 
 ,-0.0316162109375,-0.80938720703125,0.60809326171875 
 ,-0.02239990234375,-0.8179931640625,0.607666015625 
 ,-0.02264404296875,-0.8065185546875,0.61053466796875 
 ,-0.020751953125,-0.79998779296875,0.6102294921875 
 ,-0.02239990234375,-0.80438232421875,0.61212158203125 
 ,-0.02508544921875,-0.806884765625,0.61224365234375 
 ,-0.0244140625,-0.803955078125,0.6134033203125 
 ,-0.02532958984375,-0.8016357421875,0.615234375 
 ,-0.02557373046875,-0.80462646484375,0.61224365234375 
 ,-0.0264892578125,-0.80780029296875,0.6107177734375 
76462.0,-0.02545166015625,-0.80615234375,0.61383056640625 
 ,-0.02386474609375,-0.8055419921875,0.61444091796875 
 ,-0.02294921875,-0.80877685546875,0.6112060546875 
 ,-0.025146484375,-0.8101806640625,0.611572265625 
 ,-0.023681640625,-0.809814453125,0.61151123046875 
 ,-0.02337646484375,-0.810791015625,0.61053466796875 
 ,-0.02264404296875,-0.81390380859375,0.60888671875 
 ,-0.02276611328125,-0.81396484375,0.6094970703125 
 ,-0.02264404296875,-0.810302734375,0.6112060546875 
 ,-0.02142333984375,-0.8074951171875,0.61102294921875 
 ,-0.021728515625,-0.80865478515625,0.60736083984375 
 ,-0.02252197265625,-0.80767822265625,0.6104736328125 
 ,-0.0228271484375,-0.80987548828125,0.608154296875 
 ,-0.0218505859375,-0.8154296875,0.60589599609375 
 ,-0.021728515625,-0.811767578125,0.608154296875 
 ,-0.02197265625,-0.80712890625,0.60498046875 
 ,-0.019775390625,-0.81683349609375,0.58160400390625 
 ,-0.01483154296875,-0.82623291015625,0.5750732421875 
 ,-0.01446533203125,-0.81402587890625,0.598388671875 
 ,-0.01239013671875,-0.8048095703125,0.59869384765625 
 ,-0.0113525390625,-0.820068359375,0.5810546875 
 ,-0.01116943359375,-0.84075927734375,0.5789794921875 
 ,-0.01995849609375,-0.83953857421875,0.58599853515625 
 ,-0.02734375,-0.82830810546875,0.5780029296875 
 ,-0.023193359375,-0.83203125,0.57171630859375 
 ,-0.01531982421875,-0.8358154296875,0.57684326171875 
 ,-0.0084228515625,-0.83551025390625,0.57830810546875 
 ,-0.00640869140625,-0.836669921875,0.57476806640625 
 ,-0.010986328125,-0.839111328125,0.5723876953125 
 ,-0.01348876953125,-0.84344482421875,0.56805419921875 
 ,-0.01507568359375,-0.84326171875,0.566162109375 
 ,-0.01397705078125,-0.84130859375,0.5643310546875 
 ,-0.01416015625,-0.84161376953125,0.5621337890625 
 ,-0.01409912109375,-0.84344482421875,0.56109619140625 
 ,-0.011962890625,-0.84234619140625,0.5594482421875 
 ,-0.011474609375,-0.8414306640625,0.55718994140625 
 ,-0.00921630859375,-0.8419189453125,0.55389404296875 
 ,-0.0091552734375,-0.84405517578125,0.55096435546875 
 ,-0.007568359375,-0.84600830078125,0.55035400390625 
 ,-0.0076904296875,-0.84716796875,0.54974365234375 
 ,-0.00927734375,-0.849853515625,0.54803466796875 
 ,-0.00860595703125,-0.85601806640625,0.5399169921875 
 ,-0.00799560546875,-0.86175537109375,0.53448486328125 
 ,-0.0123291015625,-0.8551025390625,0.5589599609375 
 ,-0.0125732421875,-0.84381103515625,0.5531005859375 
 ,-0.0048828125,-0.8602294921875,0.51861572265625 
 ,-0.00640869140625,-0.86236572265625,0.5322265625 
 ,0.00286865234375,-0.8753662109375,0.53448486328125 
 ,-0.00537109375,-0.85894775390625,0.5521240234375 
 ,-0.01416015625,-0.851318359375,0.54559326171875 
 ,-0.00762939453125,-0.86370849609375,0.52972412109375 
 ,-0.005126953125,-0.8673095703125,0.53363037109375 
 ,-0.00189208984375,-0.8668212890625,0.53662109375 
 ,-0.00140380859375,-0.86553955078125,0.53314208984375 
 ,-0.00360107421875,-0.86419677734375,0.532470703125 
 ,-0.002197265625,-0.864990234375,0.5341796875 
 ,-0.00262451171875,-0.862548828125,0.53759765625 
 ,-0.00390625,-0.86077880859375,0.532470703125 
 ,-0.0042724609375,-0.861328125,0.52850341796875 
 ,-0.00396728515625,-0.86297607421875,0.52777099609375 
 ,-0.00543212890625,-0.86334228515625,0.53021240234375 
 ,-0.006103515625,-0.86602783203125,0.52679443359375 
 ,-0.00592041015625,-0.86907958984375,0.52716064453125 
 ,-0.00555419921875,-0.8680419921875,0.52734375 
 ,-0.00469970703125,-0.8682861328125,0.52520751953125 
 ,-0.0057373046875,-0.86505126953125,0.52392578125 
 ,-0.00543212890625,-0.86669921875,0.5208740234375 
 ,-0.00445556640625,-0.8682861328125,0.52252197265625 
 ,-0.00390625,-0.8660888671875,0.5238037109375 
 ,-0.00299072265625,-0.8641357421875,0.52398681640625 
 ,-0.0028076171875,-0.8621826171875,0.52593994140625 
 ,-0.0028076171875,-0.86602783203125,0.5260009765625 
 ,-6.103515625e-05,-0.87176513671875,0.52801513671875 
 ,-0.00030517578125,-0.867919921875,0.52813720703125 
 ,-0.00225830078125,-0.86151123046875,0.52691650390625 
 ,-0.001708984375,-0.86419677734375,0.518798828125 
 ,0.0009765625,-0.8753662109375,0.50445556640625 
 ,0.00079345703125,-0.87188720703125,0.51971435546875 
 ,0.00274658203125,-0.856689453125,0.527587890625 
 ,0.00567626953125,-0.857666015625,0.51507568359375 
 ,0.0048828125,-0.86639404296875,0.51385498046875 
 ,-0.00439453125,-0.8717041015625,0.51544189453125 
 ,-0.01483154296875,-0.868408203125,0.511474609375 
 ,-0.0196533203125,-0.86944580078125,0.50762939453125 
 ,-0.01385498046875,-0.874755859375,0.50823974609375 
 ,-0.00677490234375,-0.87384033203125,0.513427734375 
 ,-0.0013427734375,-0.8753662109375,0.51434326171875 
 ,-0.00115966796875,-0.87921142578125,0.5089111328125 
 ,-0.0028076171875,-0.88360595703125,0.50689697265625 
 ,-0.00128173828125,-0.883056640625,0.50677490234375 
 ,-0.0009765625,-0.88006591796875,0.50634765625 
 ,-0.00189208984375,-0.8773193359375,0.5059814453125 
 ,-0.0015869140625,-0.8760986328125,0.50677490234375 
 ,-0.0040283203125,-0.876708984375,0.5057373046875 
 ,-0.0047607421875,-0.87945556640625,0.50567626953125 
 ,-0.00653076171875,-0.88043212890625,0.50347900390625 
 ,-0.0074462890625,-0.88037109375,0.50152587890625 
 ,-0.00897216796875,-0.88262939453125,0.49566650390625 
 ,-0.007568359375,-0.88330078125,0.4932861328125 
 ,-0.00341796875,-0.884033203125,0.49237060546875 
 ,-0.0029296875,-0.8818359375,0.49005126953125 
 ,-0.00244140625,-0.8824462890625,0.488525390625 
 ,-0.00537109375,-0.8800048828125,0.5120849609375 
 ,-0.0069580078125,-0.865234375,0.518310546875 
 ,-0.00396728515625,-0.88531494140625,0.470703125 
 ,-0.0025634765625,-0.8812255859375,0.48895263671875 
 ,0.00567626953125,-0.8927001953125,0.475830078125 
 ,0.0037841796875,-0.88836669921875,0.49090576171875 
 ,-0.00897216796875,-0.87957763671875,0.48870849609375 
 ,-0.00811767578125,-0.88232421875,0.476318359375 
 ,-0.00628662109375,-0.880615234375,0.487548828125 
 ,-0.00482177734375,-0.873291015625,0.49603271484375 
 ,-0.0035400390625,-0.87274169921875,0.49151611328125 
 ,-0.00054931640625,-0.8758544921875,0.48663330078125 
 ,0.001220703125,-0.879150390625,0.4892578125 
 ,0.00311279296875,-0.8802490234375,0.4925537109375 
 ,0.000732421875,-0.88165283203125,0.4949951171875 
 ,-0.00408935546875,-0.88604736328125,0.4967041015625 
 ,-0.00775146484375,-0.89306640625,0.49261474609375 
 ,-0.00946044921875,-0.89532470703125,0.48675537109375 
 ,-0.00830078125,-0.8934326171875,0.48345947265625 
 ,-0.00787353515625,-0.892333984375,0.4833984375 
 ,-0.00738525390625,-0.8931884765625,0.4879150390625 
 ,-0.0068359375,-0.89520263671875,0.489990234375 
 ,-0.00726318359375,-0.8978271484375,0.48822021484375 
 ,-0.01055908203125,-0.89910888671875,0.48529052734375 
 ,-0.01348876953125,-0.897216796875,0.482666015625 
 ,-0.01300048828125,-0.8961181640625,0.482421875 
 ,-0.01397705078125,-0.89678955078125,0.4830322265625 
 ,-0.0140380859375,-0.89715576171875,0.48138427734375 
 ,-0.01275634765625,-0.89947509765625,0.47454833984375 
 ,-0.01202392578125,-0.90240478515625,0.4727783203125 
 ,-0.01092529296875,-0.8978271484375,0.47943115234375 
 ,-0.010986328125,-0.8934326171875,0.48974609375 
 ,-0.01422119140625,-0.890625,0.48406982421875 
 ,-0.01824951171875,-0.88970947265625,0.4722900390625 
 ,-0.02166748046875,-0.89111328125,0.47076416015625 
 ,-0.01904296875,-0.88934326171875,0.458984375 
 ,-0.01812744140625,-0.89190673828125,0.45489501953125 
 ,-0.0137939453125,-0.892822265625,0.4678955078125 
 ,-0.00592041015625,-0.89276123046875,0.46966552734375 
 ,-0.00048828125,-0.8936767578125,0.47454833984375 
 ,0.00115966796875,-0.89727783203125,0.47894287109375 
 ,-0.0079345703125,-0.89752197265625,0.48443603515625 
 ,-0.0184326171875,-0.89410400390625,0.47833251953125 
 ,-0.0194091796875,-0.90032958984375,0.46624755859375 
 ,-0.01275634765625,-0.90313720703125,0.46893310546875 
 ,-0.00408935546875,-0.89935302734375,0.4742431640625 
 ,0.0010986328125,-0.8970947265625,0.47027587890625 
 ,0.000244140625,-0.900146484375,0.45977783203125 
 ,-0.00445556640625,-0.90234375,0.45721435546875 
 ,-0.0079345703125,-0.90228271484375,0.45941162109375 
 ,-0.006103515625,-0.9013671875,0.45941162109375 
 ,-0.00555419921875,-0.8992919921875,0.4613037109375 
 ,-0.0067138671875,-0.89801025390625,0.45843505859375 
 ,-0.00909423828125,-0.89892578125,0.4591064453125 
 ,-0.0091552734375,-0.90191650390625,0.45648193359375 
 ,-0.0091552734375,-0.9034423828125,0.45587158203125 
 ,-0.00970458984375,-0.9027099609375,0.45245361328125 
 ,-0.0115966796875,-0.90362548828125,0.45269775390625 
 ,-0.01324462890625,-0.90386962890625,0.4476318359375 
 ,-0.01434326171875,-0.90606689453125,0.44146728515625 
 ,-0.01361083984375,-0.90606689453125,0.4415283203125 
 ,-0.01312255859375,-0.9027099609375,0.46124267578125 
 ,-0.01318359375,-0.8878173828125,0.47210693359375 
 ,-0.01153564453125,-0.90966796875,0.42608642578125 
 ,-0.0123291015625,-0.904052734375,0.456787109375 
 ,-0.00146484375,-0.91162109375,0.44122314453125 
 ,-0.0035400390625,-0.91351318359375,0.45147705078125 
 ,-0.0166015625,-0.90496826171875,0.456787109375 
 ,-0.01263427734375,-0.90777587890625,0.44293212890625 
 ,-0.009033203125,-0.90966796875,0.44390869140625 
 ,-0.0084228515625,-0.909423828125,0.448486328125 
 ,-0.00677490234375,-0.9091796875,0.4495849609375 
 ,-0.00677490234375,-0.9085693359375,0.44287109375 
 ,-0.00848388671875,-0.90985107421875,0.44049072265625 
 ,-0.00982666015625,-0.90869140625,0.4434814453125 
 ,-0.0076904296875,-0.904541015625,0.44525146484375 
 ,-0.005615234375,-0.90313720703125,0.44580078125 
 ,-0.00390625,-0.9073486328125,0.44439697265625 
 ,-0.00689697265625,-0.90985107421875,0.44091796875 
 ,-0.00927734375,-0.9112548828125,0.441650390625 
 ,-0.00927734375,-0.9097900390625,0.4429931640625 
 ,-0.00958251953125,-0.908935546875,0.44549560546875 
 ,-0.00665283203125,-0.91015625,0.445556640625 
 ,-0.00390625,-0.908935546875,0.44964599609375 
 ,-0.0032958984375,-0.9105224609375,0.4481201171875 
 ,-0.00408935546875,-0.9083251953125,0.447509765625 
 ,-0.006103515625,-0.90576171875,0.4505615234375 
 ,-0.00762939453125,-0.9061279296875,0.44903564453125 
 ,-0.0062255859375,-0.90679931640625,0.4486083984375 
 ,-0.00823974609375,-0.90814208984375,0.4466552734375 
 ,-0.0069580078125,-0.90771484375,0.448974609375 
 ,-0.00653076171875,-0.90875244140625,0.44781494140625 
 ,-0.0072021484375,-0.90802001953125,0.44586181640625 
 ,-0.00848388671875,-0.906494140625,0.4451904296875 
 ,-0.00738525390625,-0.90753173828125,0.44805908203125 
 ,-0.00469970703125,-0.90618896484375,0.4456787109375 
 ,-0.00311279296875,-0.90924072265625,0.43463134765625 
 ,-0.00140380859375,-0.90966796875,0.44268798828125 
 ,-0.00042724609375,-0.90484619140625,0.45062255859375 
 ,-6.103515625e-05,-0.90667724609375,0.43841552734375 
 ,0.00115966796875,-0.9132080078125,0.435546875 
 ,0.0042724609375,-0.913330078125,0.43182373046875 
 ,0.00469970703125,-0.91827392578125,0.42388916015625 
 ,0.00555419921875,-0.91815185546875,0.429931640625 
 ,0.0030517578125,-0.91619873046875,0.4383544921875 
 ,-0.00384521484375,-0.91168212890625,0.44342041015625 
 ,-0.01141357421875,-0.9105224609375,0.4366455078125 
 ,-0.01092529296875,-0.91748046875,0.4210205078125 
 ,-0.0074462890625,-0.9180908203125,0.42144775390625 
 ,0.00054931640625,-0.91571044921875,0.4261474609375 
 ,0.0050048828125,-0.91546630859375,0.4232177734375 
 ,0.003662109375,-0.91778564453125,0.41619873046875 
 ,0.00048828125,-0.9205322265625,0.4158935546875 
 ,-0.00115966796875,-0.91943359375,0.4208984375 
 ,-0.00067138671875,-0.916015625,0.4234619140625 
 ,-0.0001220703125,-0.91424560546875,0.4261474609375 
 ,-0.0001220703125,-0.9163818359375,0.42498779296875 
 ,-0.00238037109375,-0.91668701171875,0.4244384765625 
 ,-0.00103759765625,-0.91668701171875,0.421875 
 ,-0.0010986328125,-0.914794921875,0.4202880859375 
 ,0.00128173828125,-0.91534423828125,0.41998291015625 
 ,0.000732421875,-0.91864013671875,0.41925048828125 
 ,0.0010986328125,-0.9215087890625,0.412353515625 
 ,0.00079345703125,-0.92535400390625,0.41082763671875 
 ,0.0003662109375,-0.91632080078125,0.4404296875 
 ,-6.103515625e-05,-0.9063720703125,0.431884765625 
 ,-6.103515625e-05,-0.92938232421875,0.3922119140625 
 ,0.00115966796875,-0.92462158203125,0.419677734375 
 ,0.01141357421875,-0.93341064453125,0.40850830078125 
 ,0.00543212890625,-0.926513671875,0.42144775390625 
 ,-0.0013427734375,-0.9205322265625,0.4246826171875 
 ,0.00262451171875,-0.9197998046875,0.41253662109375 
 ,0.00018310546875,-0.91815185546875,0.41259765625 
 ,0.0015869140625,-0.9228515625,0.41717529296875 
 ,0.00457763671875,-0.923828125,0.4119873046875 
 ,0.00347900390625,-0.92266845703125,0.4072265625 
 ,0.00128173828125,-0.9228515625,0.409912109375 
 ,0.00115966796875,-0.924072265625,0.413330078125 
 ,0.0023193359375,-0.9249267578125,0.41278076171875 
 ,0.0037841796875,-0.92449951171875,0.41107177734375 
 ,0.00054931640625,-0.92657470703125,0.41162109375 
 ,-0.0003662109375,-0.927490234375,0.41229248046875 
 ,-0.000732421875,-0.9285888671875,0.4100341796875 
 ,-0.00128173828125,-0.92767333984375,0.41046142578125 
 ,-0.002197265625,-0.9302978515625,0.4124755859375 
 ,-0.00335693359375,-0.93096923828125,0.41357421875 
 ,-0.00439453125,-0.9300537109375,0.4130859375 
 ,-0.00628662109375,-0.926513671875,0.41278076171875 
 ,-0.008544921875,-0.9228515625,0.41595458984375 
 ,-0.008056640625,-0.92242431640625,0.412109375 
 ,-0.006591796875,-0.92633056640625,0.40771484375 
 ,-0.005859375,-0.92706298828125,0.41021728515625 
 ,-0.00433349609375,-0.922119140625,0.41448974609375 
 ,-0.001708984375,-0.91607666015625,0.4197998046875 
 ,0.00079345703125,-0.91729736328125,0.41632080078125 
 ,0.001953125,-0.92138671875,0.4140625 
 ,0.0028076171875,-0.92120361328125,0.41357421875 
 ,0.0032958984375,-0.9180908203125,0.41680908203125 
 ,0.00311279296875,-0.9173583984375,0.41998291015625 
 ,0.00299072265625,-0.91888427734375,0.42608642578125 
 ,0.00286865234375,-0.91632080078125,0.4268798828125 
 ,0.00311279296875,-0.91741943359375,0.41400146484375 
 ,0.002685546875,-0.92266845703125,0.41400146484375 
 ,0.001708984375,-0.91827392578125,0.4278564453125 
 ,-0.0015869140625,-0.91595458984375,0.42559814453125 
 ,-0.00146484375,-0.91680908203125,0.4163818359375 
 ,0.00311279296875,-0.91485595703125,0.41778564453125 
 ,0.006591796875,-0.92120361328125,0.4112548828125 
 ,0.00701904296875,-0.92236328125,0.4195556640625 
 ,0.0037841796875,-0.91473388671875,0.43133544921875 
 ,0.00494384765625,-0.9139404296875,0.4315185546875 
 ,0.00335693359375,-0.91375732421875,0.43084716796875 
 ,-0.00189208984375,-0.91534423828125,0.42120361328125 
 ,-0.0015869140625,-0.920166015625,0.41070556640625 
 ,0.0035400390625,-0.9207763671875,0.413818359375 
 ,0.0079345703125,-0.91741943359375,0.41943359375 
 ,0.01129150390625,-0.91632080078125,0.4178466796875 
 ,0.00848388671875,-0.92095947265625,0.41571044921875 
 ,0.0037841796875,-0.92156982421875,0.41876220703125 
 ,0.00177001953125,-0.92022705078125,0.4197998046875 
 ,0.0025634765625,-0.91827392578125,0.41998291015625 
 ,0.001708984375,-0.919677734375,0.41925048828125 
 ,0.00048828125,-0.92376708984375,0.415771484375 
 ,-0.001220703125,-0.9241943359375,0.4150390625 
 ,-0.00164794921875,-0.9212646484375,0.413330078125 
 ,-6.103515625e-05,-0.920166015625,0.41253662109375 
 ,0.000732421875,-0.92169189453125,0.410400390625 
 ,0.00164794921875,-0.921875,0.40765380859375 
 ,0.0029296875,-0.9227294921875,0.41070556640625 
 ,0.00225830078125,-0.9129638671875,0.44317626953125 
 ,0.00457763671875,-0.90972900390625,0.42474365234375 
 ,0.0067138671875,-0.9300537109375,0.40203857421875 
 ,0.01123046875,-0.919189453125,0.4293212890625 
 ,0.01678466796875,-0.9263916015625,0.41595458984375 
 ,0.00927734375,-0.92254638671875,0.42333984375 
 ,0.004150390625,-0.9183349609375,0.4276123046875 
 ,0.00640869140625,-0.91802978515625,0.4171142578125 
 ,0.0057373046875,-0.918701171875,0.42156982421875 
 ,0.0078125,-0.918701171875,0.425048828125 
 ,0.0079345703125,-0.917236328125,0.4228515625 
 ,0.0074462890625,-0.91729736328125,0.41943359375 
 ,0.0078125,-0.921142578125,0.42022705078125 
 ,0.00823974609375,-0.9190673828125,0.422607421875 
 ,0.0101318359375,-0.91595458984375,0.42230224609375 
 ,0.0101318359375,-0.91583251953125,0.41973876953125 
 ,0.0089111328125,-0.91851806640625,0.420166015625 
 ,0.00830078125,-0.91790771484375,0.42041015625 
 ,0.007080078125,-0.9163818359375,0.41754150390625 
 ,0.00628662109375,-0.9173583984375,0.416015625 
 ,0.00592041015625,-0.91888427734375,0.41827392578125 
 ,0.00482177734375,-0.91943359375,0.4190673828125 
 ,0.00421142578125,-0.9189453125,0.419189453125 
 ,0.002685546875,-0.918701171875,0.41986083984375 
 ,0.00164794921875,-0.9193115234375,0.41986083984375 
 ,-0.00018310546875,-0.91925048828125,0.4207763671875 
 ,-0.00018310546875,-0.917724609375,0.41998291015625 
 ,0.0010986328125,-0.91845703125,0.41937255859375 
 ,0.001708984375,-0.92022705078125,0.420166015625 
 ,0.00286865234375,-0.91961669921875,0.4212646484375 
 ,0.00360107421875,-0.9200439453125,0.4217529296875 
 ,0.00323486328125,-0.921142578125,0.42315673828125 
 ,0.00537109375,-0.92095947265625,0.42144775390625 
 ,0.005615234375,-0.9205322265625,0.4212646484375 
 ,0.0057373046875,-0.91949462890625,0.4254150390625 
 ,0.0062255859375,-0.9197998046875,0.43035888671875 
 ,0.00537109375,-0.9189453125,0.423583984375 
 ,0.00555419921875,-0.92034912109375,0.413330078125 
 ,0.00665283203125,-0.9188232421875,0.42584228515625 
 ,0.0052490234375,-0.91400146484375,0.43475341796875 
 ,0.00396728515625,-0.9130859375,0.423095703125 
 ,0.0067138671875,-0.91680908203125,0.41705322265625 
 ,0.010986328125,-0.91888427734375,0.4185791015625 
 ,0.01251220703125,-0.9219970703125,0.42120361328125 
 ,0.01031494140625,-0.9158935546875,0.431884765625 
 ,0.01116943359375,-0.91290283203125,0.43157958984375 
 ,0.0096435546875,-0.9171142578125,0.42724609375 
 ,0.00091552734375,-0.91815185546875,0.42913818359375 
 ,-0.00299072265625,-0.91845703125,0.4215087890625 
88595.0,-0.0008544921875,-0.9217529296875,0.41461181640625 
 ,0.00341796875,-0.92083740234375,0.4178466796875 
 ,0.0064697265625,-0.919189453125,0.42047119140625 
 ,0.00946044921875,-0.9183349609375,0.416015625 
 ,0.00848388671875,-0.92132568359375,0.41497802734375 
 ,0.00537109375,-0.9224853515625,0.4168701171875 
 ,0.0059814453125,-0.92144775390625,0.41845703125 
 ,0.0064697265625,-0.9197998046875,0.418701171875 
 ,0.00872802734375,-0.92010498046875,0.42047119140625 
 ,0.007568359375,-0.9193115234375,0.42144775390625 
 ,0.00543212890625,-0.91864013671875,0.42169189453125 
 ,0.00555419921875,-0.91998291015625,0.41729736328125 
 ,0.00567626953125,-0.921630859375,0.41693115234375 
 ,0.0078125,-0.91961669921875,0.41693115234375 
 ,0.00927734375,-0.92138671875,0.41253662109375 
 ,0.00848388671875,-0.92034912109375,0.42242431640625 
 ,0.0069580078125,-0.90478515625,0.4476318359375 
 ,0.008056640625,-0.917236328125,0.4056396484375 
 ,0.00531005859375,-0.92218017578125,0.419677734375 
 ,0.01153564453125,-0.9136962890625,0.4246826171875 
 ,0.01434326171875,-0.92413330078125,0.412841796875 
 ,0.00140380859375,-0.91796875,0.4312744140625 
 ,0.0009765625,-0.9141845703125,0.42333984375 
 ,0.00323486328125,-0.9200439453125,0.41375732421875 
 ,0.00250244140625,-0.92254638671875,0.42279052734375 
 ,0.003662109375,-0.91802978515625,0.427490234375 
 ,0.00299072265625,-0.91412353515625,0.42364501953125 
 ,0.00384521484375,-0.9176025390625,0.4171142578125 
 ,0.0068359375,-0.91973876953125,0.41973876953125 
 ,0.006591796875,-0.91748046875,0.42138671875 
 ,0.0072021484375,-0.91571044921875,0.4197998046875 
 ,0.0074462890625,-0.9149169921875,0.42071533203125 
 ,0.005615234375,-0.9169921875,0.42205810546875 
 ,0.0035400390625,-0.91802978515625,0.41998291015625 
 ,0.00262451171875,-0.919921875,0.41717529296875 
 ,0.0028076171875,-0.92010498046875,0.4173583984375 
 ,0.0030517578125,-0.91900634765625,0.4195556640625 
 ,0.0028076171875,-0.91961669921875,0.419921875 
 ,0.00396728515625,-0.9195556640625,0.419677734375 
 ,0.00238037109375,-0.91973876953125,0.420166015625 
 ,0.0015869140625,-0.9200439453125,0.41986083984375 
 ,-6.103515625e-05,-0.91888427734375,0.42205810546875 
 ,-0.00054931640625,-0.91790771484375,0.4227294921875 
 ,0.0001220703125,-0.91802978515625,0.42230224609375 
 ,0.00054931640625,-0.9195556640625,0.42132568359375 
 ,0.001708984375,-0.91864013671875,0.42120361328125 
 ,0.00238037109375,-0.9193115234375,0.42095947265625 
 ,0.00189208984375,-0.9207763671875,0.42156982421875 
 ,0.00396728515625,-0.92083740234375,0.42132568359375 
 ,0.0042724609375,-0.91790771484375,0.421630859375 
 ,0.00384521484375,-0.91827392578125,0.426025390625 
 ,0.00244140625,-0.91741943359375,0.430908203125 
 ,-0.00018310546875,-0.9166259765625,0.42108154296875 
 ,0.0003662109375,-0.9205322265625,0.41558837890625 
 ,0.00115966796875,-0.9190673828125,0.427490234375 
 ,-0.00091552734375,-0.9149169921875,0.43017578125 
 ,-0.001953125,-0.9150390625,0.4176025390625 
 ,0.00347900390625,-0.91900634765625,0.41485595703125 
 ,0.00677490234375,-0.92352294921875,0.4112548828125 
 ,0.0037841796875,-0.92388916015625,0.41888427734375 
 ,0.00201416015625,-0.91558837890625,0.429931640625 
 ,0.0023193359375,-0.91595458984375,0.4267578125 
 ,-0.0015869140625,-0.91796875,0.42779541015625 
 ,-0.00933837890625,-0.91583251953125,0.4249267578125 
 ,-0.01171875,-0.91815185546875,0.4144287109375 
 ,-0.00628662109375,-0.922607421875,0.41070556640625 
 ,-0.000244140625,-0.922607421875,0.41497802734375 
 ,0.00286865234375,-0.91802978515625,0.41741943359375 
 ,0.00140380859375,-0.9190673828125,0.412353515625 
 ,-0.000244140625,-0.92254638671875,0.41351318359375 
 ,-0.00274658203125,-0.9234619140625,0.41656494140625 
 ,-0.00335693359375,-0.9217529296875,0.41748046875 
 ,-0.001953125,-0.92010498046875,0.41796875 
 ,-0.0020751953125,-0.921630859375,0.41986083984375 
 ,-0.00347900390625,-0.920654296875,0.41912841796875 
 ,-0.003662109375,-0.9200439453125,0.41845703125 
 ,-0.0035400390625,-0.91729736328125,0.41912841796875 
 ,-0.0032958984375,-0.9185791015625,0.41827392578125 
 ,-0.00286865234375,-0.91796875,0.41534423828125 
 ,-0.00079345703125,-0.921142578125,0.4127197265625 
 ,-0.0018310546875,-0.9185791015625,0.42822265625 
 ,-0.003173828125,-0.90484619140625,0.43994140625 
 ,-0.0015869140625,-0.92236328125,0.40472412109375 
 ,-0.00323486328125,-0.9205322265625,0.4256591796875 
 ,0.0048828125,-0.9178466796875,0.4229736328125 
 ,0.0020751953125,-0.9241943359375,0.4166259765625 
 ,-0.00933837890625,-0.91827392578125,0.4312744140625 
 ,-0.0087890625,-0.915283203125,0.42095947265625 
 ,-0.00738525390625,-0.917724609375,0.4169921875 
 ,-0.00347900390625,-0.92047119140625,0.42633056640625 
 ,0.00067138671875,-0.91436767578125,0.42779541015625 
 ,-0.00103759765625,-0.9130859375,0.4217529296875 
 ,-0.0029296875,-0.91949462890625,0.41961669921875 
 ,-0.00250244140625,-0.9228515625,0.42041015625 
 ,-0.00152587890625,-0.91937255859375,0.421142578125 
 ,-0.0010986328125,-0.9171142578125,0.420654296875 
 ,-6.103515625e-05,-0.91888427734375,0.42218017578125 
 ,0.0001220703125,-0.9208984375,0.42095947265625 
 ,-0.00054931640625,-0.9205322265625,0.4202880859375 
 ,-0.0015869140625,-0.9183349609375,0.4205322265625 
 ,-0.00128173828125,-0.9173583984375,0.42034912109375 
 ,-0.0008544921875,-0.91729736328125,0.42083740234375 
 ,-0.00115966796875,-0.91693115234375,0.42242431640625 
 ,-0.0008544921875,-0.91778564453125,0.422607421875 
 ,-0.00048828125,-0.91845703125,0.42230224609375 
 ,-0.0009765625,-0.91705322265625,0.42242431640625 
 ,-0.00262451171875,-0.9171142578125,0.42413330078125 
 ,-0.00323486328125,-0.91827392578125,0.42230224609375 
 ,-0.00054931640625,-0.9188232421875,0.42181396484375 
 ,-0.0010986328125,-0.91748046875,0.42169189453125 
 ,-0.00054931640625,-0.9178466796875,0.421875 
 ,0.00048828125,-0.917724609375,0.42315673828125 
 ,0.00079345703125,-0.9156494140625,0.42352294921875 
 ,0.00079345703125,-0.91717529296875,0.42388916015625 
 ,-0.0008544921875,-0.9173583984375,0.4302978515625 
 ,-0.00030517578125,-0.91448974609375,0.42828369140625 
 ,0.00042724609375,-0.915771484375,0.41717529296875 
 ,0.0009765625,-0.917724609375,0.42108154296875 
 ,0.0001220703125,-0.9139404296875,0.4346923828125 
 ,-0.00335693359375,-0.911376953125,0.42523193359375 
 ,-0.0003662109375,-0.9190673828125,0.41497802734375 
 ,0.0050048828125,-0.9202880859375,0.41650390625 
 ,0.00579833984375,-0.92120361328125,0.4185791015625 
 ,0.00286865234375,-0.91778564453125,0.43170166015625 
 ,0.00225830078125,-0.91485595703125,0.43115234375 
 ,0.0020751953125,-0.917724609375,0.42724609375 
 ,-0.0047607421875,-0.9150390625,0.42852783203125 
 ,-0.0086669921875,-0.91595458984375,0.42218017578125 
 ,-0.0057373046875,-0.92071533203125,0.4140625 
 ,-0.0020751953125,-0.92266845703125,0.41522216796875 
 ,0.00347900390625,-0.91943359375,0.4208984375 
 ,0.0072021484375,-0.91851806640625,0.41998291015625 
 ,0.007080078125,-0.92071533203125,0.41778564453125 
 ,0.00390625,-0.9219970703125,0.41607666015625 
 ,0.001708984375,-0.92041015625,0.41448974609375 
 ,0.002197265625,-0.9173583984375,0.41650390625 
 ,0.0029296875,-0.9156494140625,0.41754150390625 
 ,0.002685546875,-0.9168701171875,0.4202880859375 
 ,0.00372314453125,-0.916259765625,0.42169189453125 
 ,0.001708984375,-0.9173583984375,0.42144775390625 
 ,0.0006103515625,-0.9190673828125,0.424560546875 
 ,0.0030517578125,-0.9178466796875,0.4267578125 
 ,0.00115966796875,-0.91632080078125,0.4239501953125 
 ,0.00115966796875,-0.9205322265625,0.4222412109375 
 ,0.00115966796875,-0.91229248046875,0.45159912109375 
 ,0.00189208984375,-0.9097900390625,0.4329833984375 
 ,-0.00177001953125,-0.92498779296875,0.42205810546875 
 ,-0.00311279296875,-0.9111328125,0.44696044921875 
 ,0.00506591796875,-0.91741943359375,0.43280029296875 
 ,-0.0018310546875,-0.9183349609375,0.43365478515625 
 ,-0.0091552734375,-0.9127197265625,0.44757080078125 
 ,-0.00439453125,-0.91180419921875,0.4359130859375 
 ,-0.00262451171875,-0.91424560546875,0.4378662109375 
 ,-0.00042724609375,-0.9132080078125,0.4473876953125 
 ,0.0008544921875,-0.90911865234375,0.44378662109375 
 ,-0.000732421875,-0.91015625,0.44415283203125 
 ,-6.103515625e-05,-0.9122314453125,0.44464111328125 
 ,-0.001220703125,-0.9129638671875,0.443115234375 
 ,-0.000732421875,-0.90765380859375,0.4476318359375 
 ,0.00030517578125,-0.90618896484375,0.447021484375 
 ,-0.0032958984375,-0.9073486328125,0.4505615234375 
 ,-0.004638671875,-0.90643310546875,0.4517822265625 
 ,-0.0052490234375,-0.90313720703125,0.45050048828125 
 ,-0.00518798828125,-0.90277099609375,0.45306396484375 
 ,-0.004638671875,-0.9014892578125,0.4583740234375 
 ,-0.00506591796875,-0.89898681640625,0.459228515625 
 ,-0.00634765625,-0.89947509765625,0.460205078125 
 ,-0.0078125,-0.90130615234375,0.46221923828125 
 ,-0.00823974609375,-0.9014892578125,0.46484375 
 ,-0.00750732421875,-0.90081787109375,0.46600341796875 
 ,-0.00738525390625,-0.897705078125,0.4676513671875 
 ,-0.00799560546875,-0.89697265625,0.469482421875 
 ,-0.00628662109375,-0.8968505859375,0.46917724609375 
 ,-0.00616455078125,-0.89569091796875,0.470703125 
 ,-0.00787353515625,-0.892822265625,0.4720458984375 
 ,-0.00787353515625,-0.89263916015625,0.47503662109375 
 ,-0.0069580078125,-0.89276123046875,0.4822998046875 
 ,-0.0081787109375,-0.89215087890625,0.4892578125 
 ,-0.01043701171875,-0.89300537109375,0.48455810546875 
 ,-0.01031494140625,-0.892822265625,0.48223876953125 
 ,-0.01141357421875,-0.89080810546875,0.49072265625 
 ,-0.011474609375,-0.88812255859375,0.48370361328125 
 ,-0.007568359375,-0.89129638671875,0.47210693359375 
 ,-0.0042724609375,-0.88983154296875,0.47796630859375 
 ,0.0008544921875,-0.89202880859375,0.47808837890625 
 ,0.0003662109375,-0.8875732421875,0.48858642578125 
 ,-0.0040283203125,-0.8837890625,0.4920654296875 
 ,-0.00531005859375,-0.88848876953125,0.48895263671875 
 ,-0.0118408203125,-0.88885498046875,0.491943359375 
 ,-0.02020263671875,-0.88580322265625,0.490966796875 
 ,-0.0205078125,-0.88671875,0.4854736328125 
 ,-0.01263427734375,-0.88421630859375,0.48895263671875 
 ,-0.003662109375,-0.88385009765625,0.49163818359375 
 ,-0.0006103515625,-0.88214111328125,0.49139404296875 
 ,-0.0020751953125,-0.88409423828125,0.495361328125 
 ,-0.00469970703125,-0.8851318359375,0.4945068359375 
 ,-0.0040283203125,-0.88427734375,0.48980712890625 
 ,-0.005615234375,-0.8787841796875,0.49609375 
 ,-0.00531005859375,-0.8779296875,0.50091552734375 
 ,-0.00531005859375,-0.8800048828125,0.500244140625 
 ,-0.00689697265625,-0.87774658203125,0.501708984375 
 ,-0.008544921875,-0.875244140625,0.505126953125 
 ,-0.00848388671875,-0.87518310546875,0.504150390625 
 ,-0.0072021484375,-0.87646484375,0.5059814453125 
 ,-0.00579833984375,-0.87835693359375,0.50238037109375 
 ,-0.00311279296875,-0.88018798828125,0.4998779296875 
 ,-0.004150390625,-0.8785400390625,0.51263427734375 
 ,-0.00543212890625,-0.85833740234375,0.52569580078125 
 ,6.103515625e-05,-0.87939453125,0.4906005859375 
 ,-0.00439453125,-0.87457275390625,0.5179443359375 
 ,6.103515625e-05,-0.87115478515625,0.5162353515625 
 ,0.001220703125,-0.8720703125,0.5125732421875 
 ,-0.0120849609375,-0.86798095703125,0.5211181640625 
 ,-0.01239013671875,-0.86468505859375,0.5235595703125 
 ,-0.00775146484375,-0.8682861328125,0.517578125 
 ,-0.00189208984375,-0.86602783203125,0.52838134765625 
 ,-0.00054931640625,-0.8607177734375,0.5301513671875 
 ,-0.00494384765625,-0.8614501953125,0.52960205078125 
 ,-0.00787353515625,-0.8624267578125,0.53045654296875 
 ,-0.00775146484375,-0.8623046875,0.53350830078125 
 ,-0.0048828125,-0.85791015625,0.53948974609375 
 ,-0.004150390625,-0.85894775390625,0.53973388671875 
 ,-0.00616455078125,-0.85650634765625,0.54351806640625 
 ,-0.0081787109375,-0.85797119140625,0.54010009765625 
 ,-0.00811767578125,-0.85760498046875,0.53680419921875 
 ,-0.0087890625,-0.85595703125,0.53741455078125 
 ,-0.00653076171875,-0.85723876953125,0.53973388671875 
 ,-0.00494384765625,-0.85791015625,0.5389404296875 
 ,-0.0057373046875,-0.8585205078125,0.5401611328125 
 ,-0.00762939453125,-0.858154296875,0.5418701171875 
 ,-0.00469970703125,-0.85467529296875,0.543212890625 
 ,-0.0048828125,-0.856689453125,0.5435791015625 
 ,-0.0035400390625,-0.859619140625,0.54345703125 
 ,-0.003662109375,-0.85614013671875,0.54327392578125 
 ,-0.00323486328125,-0.85198974609375,0.54730224609375 
 ,-0.00201416015625,-0.84832763671875,0.54791259765625 
 ,-0.00164794921875,-0.85064697265625,0.552978515625 
 ,-0.0003662109375,-0.85107421875,0.55511474609375 
 ,-0.00079345703125,-0.847900390625,0.56396484375 
 ,-0.002197265625,-0.84375,0.561279296875 
 ,-0.002197265625,-0.847900390625,0.545654296875 
 ,-0.002685546875,-0.8555908203125,0.5408935546875 
 ,0.002685546875,-0.861328125,0.5408935546875 
 ,0.006591796875,-0.84954833984375,0.55828857421875 
 ,0.00762939453125,-0.8369140625,0.5596923828125 
 ,0.00457763671875,-0.84381103515625,0.55596923828125 
 ,0.00048828125,-0.8472900390625,0.56365966796875 
 ,-0.0010986328125,-0.84814453125,0.55072021484375 
 ,0.00372314453125,-0.8541259765625,0.5499267578125 
 ,0.0025634765625,-0.8536376953125,0.56005859375 
 ,-0.00244140625,-0.8487548828125,0.5523681640625 
 ,-0.00311279296875,-0.8489990234375,0.54437255859375 
 ,0.00250244140625,-0.8516845703125,0.54498291015625 
 ,0.00811767578125,-0.8492431640625,0.5489501953125 
 ,0.0087890625,-0.845703125,0.55511474609375 
 ,0.005859375,-0.845947265625,0.5596923828125 
 ,0.0020751953125,-0.84637451171875,0.56005859375 
 ,0.000244140625,-0.84527587890625,0.56036376953125 
 ,0.0015869140625,-0.8441162109375,0.5614013671875 
 ,0.00244140625,-0.84381103515625,0.560791015625 
 ,0.0013427734375,-0.84002685546875,0.56195068359375 
 ,0.00054931640625,-0.839599609375,0.56158447265625 
 ,0.00030517578125,-0.837646484375,0.56689453125 
 ,0.001708984375,-0.83941650390625,0.56610107421875 
 ,0.00177001953125,-0.8408203125,0.5657958984375 
 ,0.00213623046875,-0.84136962890625,0.563720703125 
 ,0.003662109375,-0.84832763671875,0.560791015625 
 ,0.001708984375,-0.84619140625,0.56939697265625 
 ,-0.00225830078125,-0.82012939453125,0.5927734375 
 ,0.00433349609375,-0.83624267578125,0.5501708984375 
 ,-0.00030517578125,-0.84197998046875,0.57684326171875 
 ,0.000732421875,-0.82977294921875,0.58636474609375 
 ,0.00738525390625,-0.83819580078125,0.57965087890625 
 ,-0.01092529296875,-0.82861328125,0.58453369140625 
 ,-0.0087890625,-0.83477783203125,0.57586669921875 
 ,-0.000244140625,-0.83624267578125,0.576904296875 
 ,0.00262451171875,-0.82867431640625,0.58642578125 
 ,0.0028076171875,-0.8203125,0.591552734375 
 ,-0.0030517578125,-0.822509765625,0.59375 
 ,-0.0045166015625,-0.82183837890625,0.596435546875 
 ,-0.00433349609375,-0.818115234375,0.5966796875 
 ,-0.001953125,-0.81689453125,0.59765625 
 ,0.0003662109375,-0.81707763671875,0.59765625 
 ,0.00030517578125,-0.813232421875,0.60272216796875 
 ,-0.00079345703125,-0.804931640625,0.60601806640625 
 ,-0.00018310546875,-0.80780029296875,0.60516357421875 
 ,0.001220703125,-0.814208984375,0.6068115234375 
 ,0.00018310546875,-0.81231689453125,0.6087646484375 
 ,-0.0008544921875,-0.80902099609375,0.60711669921875 
 ,-0.0029296875,-0.81011962890625,0.60357666015625 
 ,-0.00543212890625,-0.811767578125,0.60345458984375 
 ,-0.0091552734375,-0.8106689453125,0.602783203125 
 ,-0.01226806640625,-0.8111572265625,0.60394287109375 
 ,-0.0150146484375,-0.8118896484375,0.60479736328125 
 ,-0.01531982421875,-0.80987548828125,0.61376953125 
 ,-0.015869140625,-0.80419921875,0.621826171875 
 ,-0.013916015625,-0.8013916015625,0.62457275390625 
 ,-0.01416015625,-0.80377197265625,0.625732421875 
 ,-0.01373291015625,-0.8065185546875,0.6187744140625 
 ,-0.01312255859375,-0.81365966796875,0.597900390625 
 ,-0.01416015625,-0.8197021484375,0.59466552734375 
 ,-0.009521484375,-0.81634521484375,0.6072998046875 
 ,-0.00531005859375,-0.80072021484375,0.61676025390625 
 ,-0.00750732421875,-0.8004150390625,0.60772705078125 
 ,-0.01031494140625,-0.80712890625,0.61724853515625 
 ,-0.01080322265625,-0.810302734375,0.61138916015625 
 ,-0.0091552734375,-0.81451416015625,0.60107421875 
 ,-0.00787353515625,-0.81378173828125,0.60968017578125 
 ,-0.006591796875,-0.81243896484375,0.6121826171875 
 ,-0.0086669921875,-0.8123779296875,0.60455322265625 
 ,-0.00701904296875,-0.81402587890625,0.6031494140625 
 ,-0.00390625,-0.80950927734375,0.6077880859375 
 ,0.0,-0.80450439453125,0.6151123046875 
 ,0.00079345703125,-0.8028564453125,0.622314453125 
 ,-0.000244140625,-0.8045654296875,0.61932373046875 
 ,-0.00225830078125,-0.806640625,0.61798095703125 
 ,-0.00140380859375,-0.80694580078125,0.61773681640625 
 ,0.00054931640625,-0.8062744140625,0.61444091796875 
 ,-0.0006103515625,-0.8052978515625,0.614013671875 
 ,0.00042724609375,-0.80267333984375,0.6146240234375 
 ,0.0008544921875,-0.80279541015625,0.61669921875 
 ,0.00146484375,-0.801025390625,0.61529541015625 
 ,-0.00018310546875,-0.8017578125,0.6142578125 
 ,-0.00299072265625,-0.80401611328125,0.6097412109375 
 ,-0.00146484375,-0.8082275390625,0.6103515625 
 ,-0.00189208984375,-0.81072998046875,0.60699462890625 
 ,-0.00665283203125,-0.810302734375,0.61370849609375 
 ,-0.00970458984375,-0.78741455078125,0.63677978515625 
 ,-0.0013427734375,-0.80072021484375,0.5997314453125 
 ,-0.0048828125,-0.80865478515625,0.6219482421875 
 ,-0.00433349609375,-0.80908203125,0.61871337890625 
 ,0.002685546875,-0.81341552734375,0.62030029296875 
 ,-0.01708984375,-0.79791259765625,0.6187744140625 
 ,-0.01043701171875,-0.802001953125,0.61053466796875 
 ,0.00079345703125,-0.807373046875,0.61981201171875 
 ,0.00225830078125,-0.79974365234375,0.62957763671875 
 ,0.00030517578125,-0.79425048828125,0.6292724609375 
 ,-0.0059814453125,-0.7972412109375,0.62554931640625 
 ,-0.00836181640625,-0.800048828125,0.6280517578125 
 ,-0.0084228515625,-0.79754638671875,0.62896728515625 
101167.0,-0.00714111328125,-0.7947998046875,0.62908935546875 
 ,-0.00836181640625,-0.79559326171875,0.63494873046875 
 ,-0.00897216796875,-0.79815673828125,0.635986328125 
 ,-0.0101318359375,-0.80218505859375,0.63262939453125 
 ,-0.00836181640625,-0.80291748046875,0.63153076171875 
 ,-0.00714111328125,-0.79510498046875,0.63739013671875 
 ,-0.00555419921875,-0.78717041015625,0.64013671875 
 ,-0.00592041015625,-0.7877197265625,0.63348388671875 
 ,-0.00567626953125,-0.7911376953125,0.6357421875 
 ,-0.00518798828125,-0.7930908203125,0.6343994140625 
 ,-0.00494384765625,-0.79254150390625,0.63409423828125 
 ,-0.00469970703125,-0.79034423828125,0.63104248046875 
 ,-0.0040283203125,-0.78924560546875,0.63372802734375 
 ,-0.00421142578125,-0.78662109375,0.639892578125 
 ,-0.00628662109375,-0.78436279296875,0.64312744140625 
 ,-0.00830078125,-0.7852783203125,0.643798828125 
 ,-0.0098876953125,-0.79254150390625,0.6363525390625 
 ,-0.01116943359375,-0.79864501953125,0.62457275390625 
 ,-0.0118408203125,-0.8011474609375,0.6126708984375 
 ,-0.01123046875,-0.798095703125,0.6181640625 
 ,-0.00994873046875,-0.78485107421875,0.6312255859375 
 ,-0.01239013671875,-0.77801513671875,0.63720703125 
 ,-0.01397705078125,-0.788330078125,0.62786865234375 
 ,-0.0106201171875,-0.8001708984375,0.61639404296875 
 ,-0.0103759765625,-0.80615234375,0.62213134765625 
 ,-0.0103759765625,-0.80126953125,0.6278076171875 
 ,-0.01507568359375,-0.7965087890625,0.62200927734375 
 ,-0.0123291015625,-0.79949951171875,0.62078857421875 
 ,-0.0040283203125,-0.80078125,0.626708984375 
 ,-0.00244140625,-0.796142578125,0.628662109375 
 ,-0.004638671875,-0.79351806640625,0.62982177734375 
 ,-0.00885009765625,-0.79388427734375,0.62884521484375 
 ,-0.00775146484375,-0.7957763671875,0.62921142578125 
 ,-0.00567626953125,-0.7939453125,0.63092041015625 
 ,-0.0040283203125,-0.789306640625,0.63287353515625 
 ,-0.00323486328125,-0.7894287109375,0.63433837890625 
 ,-0.0025634765625,-0.79046630859375,0.63555908203125 
 ,-0.00341796875,-0.79193115234375,0.6339111328125 
 ,-0.0035400390625,-0.79296875,0.63153076171875 
 ,-0.0010986328125,-0.79193115234375,0.63134765625 
 ,0.00067138671875,-0.7896728515625,0.62445068359375 
 ,0.002197265625,-0.7862548828125,0.6168212890625 
 ,-0.00054931640625,-0.7861328125,0.615478515625 
 ,-0.00164794921875,-0.79290771484375,0.61688232421875 
 ,-0.0030517578125,-0.7943115234375,0.62139892578125 
 ,-0.00537109375,-0.7789306640625,0.647705078125 
 ,-0.00140380859375,-0.785400390625,0.61236572265625 
 ,0.00250244140625,-0.798583984375,0.62579345703125 
 ,0.0006103515625,-0.80230712890625,0.63360595703125 
 ,0.00811767578125,-0.8101806640625,0.63372802734375 
 ,-0.01214599609375,-0.79254150390625,0.6339111328125 
 ,-0.0087890625,-0.7947998046875,0.6226806640625 
 ,6.103515625e-05,-0.80560302734375,0.62701416015625 
 ,0.00201416015625,-0.79931640625,0.64111328125 
 ,0.0029296875,-0.7908935546875,0.64141845703125 
 ,-0.00323486328125,-0.7904052734375,0.63751220703125 
 ,-0.0052490234375,-0.793701171875,0.6375732421875 
 ,-0.00457763671875,-0.79193115234375,0.6324462890625 
 ,-0.00213623046875,-0.78973388671875,0.63360595703125 
 ,-0.00164794921875,-0.78857421875,0.638427734375 
 ,-0.003173828125,-0.78826904296875,0.63946533203125 
 ,-0.00390625,-0.7890625,0.6392822265625 
 ,-0.00244140625,-0.7890625,0.637451171875 
 ,-0.0020751953125,-0.78814697265625,0.636962890625 
 ,-0.0006103515625,-0.78863525390625,0.6378173828125 
 ,-0.00067138671875,-0.7904052734375,0.63409423828125 
 ,-0.00103759765625,-0.7950439453125,0.632080078125 
 ,0.0006103515625,-0.7955322265625,0.636962890625 
 ,-0.000244140625,-0.79296875,0.6376953125 
 ,-0.00238037109375,-0.78948974609375,0.63543701171875 
 ,-0.003662109375,-0.7890625,0.63836669921875 
 ,-0.00341796875,-0.79058837890625,0.643310546875 
 ,-0.001708984375,-0.79217529296875,0.64178466796875 
 ,-0.00079345703125,-0.7955322265625,0.64031982421875 
 ,6.103515625e-05,-0.79254150390625,0.63568115234375 
 ,-0.00201416015625,-0.79034423828125,0.62750244140625 
 ,-0.00128173828125,-0.79901123046875,0.6175537109375 
 ,6.103515625e-05,-0.791748046875,0.63226318359375 
 ,-0.0008544921875,-0.77337646484375,0.6466064453125 
 ,-0.00189208984375,-0.7791748046875,0.6368408203125 
 ,-0.00201416015625,-0.80108642578125,0.6251220703125 
 ,-0.0023193359375,-0.81243896484375,0.62176513671875 
 ,-0.00927734375,-0.805419921875,0.62432861328125 
 ,-0.01348876953125,-0.79681396484375,0.61993408203125 
 ,-0.004638671875,-0.7996826171875,0.6170654296875 
 ,0.00628662109375,-0.80242919921875,0.61676025390625 
 ,0.00714111328125,-0.7998046875,0.61749267578125 
 ,0.00372314453125,-0.8006591796875,0.6181640625 
 ,-0.0003662109375,-0.80401611328125,0.618408203125 
 ,-0.0018310546875,-0.80572509765625,0.6162109375 
 ,0.0001220703125,-0.80377197265625,0.61956787109375 
 ,-0.00164794921875,-0.80279541015625,0.61968994140625 
 ,-0.0008544921875,-0.80462646484375,0.617919921875 
 ,-0.0015869140625,-0.804443359375,0.61859130859375 
 ,-0.00238037109375,-0.80267333984375,0.6207275390625 
 ,-0.00262451171875,-0.802978515625,0.62109375 
 ,-0.0010986328125,-0.80523681640625,0.6173095703125 
 ,-6.103515625e-05,-0.805908203125,0.62091064453125 
 ,0.00146484375,-0.8043212890625,0.6202392578125 
 ,0.000732421875,-0.80657958984375,0.6187744140625 
 ,0.00164794921875,-0.81182861328125,0.61480712890625 
 ,0.00238037109375,-0.8138427734375,0.60888671875 
 ,-0.001953125,-0.8072509765625,0.623291015625 
 ,-0.00335693359375,-0.78082275390625,0.64263916015625 
 ,0.002685546875,-0.79656982421875,0.59710693359375 
 ,-0.003662109375,-0.802978515625,0.62353515625 
 ,-0.00042724609375,-0.8165283203125,0.61962890625 
 ,-0.00384521484375,-0.80596923828125,0.6307373046875 
 ,-0.017333984375,-0.79754638671875,0.6156005859375 
 ,-0.00439453125,-0.8084716796875,0.61480712890625 
 ,-0.00152587890625,-0.804931640625,0.62359619140625 
 ,0.00054931640625,-0.79461669921875,0.62255859375 
 ,-0.0025634765625,-0.79254150390625,0.626220703125 
 ,-0.00494384765625,-0.79620361328125,0.625732421875 
 ,-0.003173828125,-0.79931640625,0.623779296875 
 ,-0.00152587890625,-0.79656982421875,0.62640380859375 
 ,-0.00067138671875,-0.7958984375,0.6278076171875 
 ,-0.00189208984375,-0.79937744140625,0.63092041015625 
 ,-0.003173828125,-0.79888916015625,0.6302490234375 
 ,-0.0037841796875,-0.7955322265625,0.62890625 
 ,-0.00518798828125,-0.79150390625,0.6287841796875 
 ,-0.00665283203125,-0.79193115234375,0.62713623046875 
 ,-0.00457763671875,-0.79620361328125,0.6259765625 
 ,-0.002685546875,-0.80126953125,0.62066650390625 
 ,-0.00213623046875,-0.801025390625,0.623291015625 
 ,-0.00335693359375,-0.797119140625,0.62774658203125 
 ,-0.00469970703125,-0.79730224609375,0.62823486328125 
 ,-0.0059814453125,-0.7977294921875,0.62872314453125 
 ,-0.00640869140625,-0.7965087890625,0.6309814453125 
 ,-0.004638671875,-0.80072021484375,0.628662109375 
 ,-0.00390625,-0.80389404296875,0.63128662109375 
 ,-0.00439453125,-0.79620361328125,0.6343994140625 
 ,-0.007080078125,-0.7940673828125,0.624267578125 
 ,-0.0057373046875,-0.8060302734375,0.6083984375 
 ,-0.00244140625,-0.80145263671875,0.62579345703125 
 ,-0.0025634765625,-0.774658203125,0.64410400390625 
 ,0.00048828125,-0.78851318359375,0.62188720703125 
 ,-0.0009765625,-0.8109130859375,0.6181640625 
 ,-0.00341796875,-0.8157958984375,0.61639404296875 
 ,-0.01019287109375,-0.80615234375,0.61767578125 
 ,-0.01080322265625,-0.802490234375,0.61407470703125 
 ,-0.00384521484375,-0.80755615234375,0.61212158203125 
 ,0.0009765625,-0.806884765625,0.61517333984375 
 ,0.00128173828125,-0.802734375,0.6143798828125 
 ,-0.00238037109375,-0.80657958984375,0.611083984375 
 ,-0.00677490234375,-0.81036376953125,0.609130859375 
 ,-0.0081787109375,-0.80682373046875,0.61260986328125 
 ,-0.00567626953125,-0.80291748046875,0.61505126953125 
 ,-0.00494384765625,-0.80401611328125,0.616455078125 
 ,-0.0054931640625,-0.8076171875,0.61676025390625 
 ,-0.005615234375,-0.80535888671875,0.6163330078125 
 ,-0.0057373046875,-0.80499267578125,0.61712646484375 
 ,-0.0050048828125,-0.806884765625,0.6156005859375 
 ,-0.00592041015625,-0.8082275390625,0.614013671875 
 ,-0.00433349609375,-0.80975341796875,0.6143798828125 
 ,-0.00433349609375,-0.808837890625,0.61431884765625 
 ,-0.00250244140625,-0.8089599609375,0.61187744140625 
 ,-0.0037841796875,-0.8095703125,0.61102294921875 
 ,-0.00457763671875,-0.81390380859375,0.606689453125 
 ,-0.00469970703125,-0.816162109375,0.6068115234375 
 ,-0.00927734375,-0.7982177734375,0.64215087890625 
 ,-0.0040283203125,-0.7899169921875,0.61212158203125 
 ,0.0009765625,-0.8116455078125,0.5966796875 
 ,-0.00579833984375,-0.81610107421875,0.6170654296875 
 ,0.00146484375,-0.81842041015625,0.6212158203125 
 ,-0.0123291015625,-0.79425048828125,0.61895751953125 
 ,-0.01226806640625,-0.803466796875,0.60870361328125 
 ,-0.0042724609375,-0.81781005859375,0.608154296875 
 ,-0.003662109375,-0.8095703125,0.61468505859375 
 ,-0.00250244140625,-0.80291748046875,0.61480712890625 
 ,-0.00701904296875,-0.80224609375,0.61334228515625 
 ,-0.00628662109375,-0.80316162109375,0.61322021484375 
 ,-0.004638671875,-0.8040771484375,0.6138916015625 
 ,-0.005126953125,-0.80340576171875,0.61578369140625 
 ,-0.00677490234375,-0.8040771484375,0.61572265625 
 ,-0.00665283203125,-0.8046875,0.617919921875 
 ,-0.00634765625,-0.8037109375,0.61529541015625 
 ,-0.00750732421875,-0.80657958984375,0.6143798828125 
 ,-0.01007080078125,-0.80596923828125,0.615478515625 
 ,-0.01019287109375,-0.80328369140625,0.61572265625 
 ,-0.00836181640625,-0.8077392578125,0.614013671875 
 ,-0.00701904296875,-0.8126220703125,0.60931396484375 
 ,-0.00823974609375,-0.8109130859375,0.6102294921875 
 ,-0.00811767578125,-0.8048095703125,0.616455078125 
 ,-0.00933837890625,-0.80279541015625,0.6165771484375 
 ,-0.010009765625,-0.8026123046875,0.618896484375 
 ,-0.00830078125,-0.80364990234375,0.6170654296875 
 ,-0.00579833984375,-0.810791015625,0.6142578125 
 ,-0.00604248046875,-0.8087158203125,0.62841796875 
 ,-0.0087890625,-0.79937744140625,0.6273193359375 
 ,-0.0084228515625,-0.80792236328125,0.60589599609375 
 ,-0.0035400390625,-0.8238525390625,0.594482421875 
 ,-0.00189208984375,-0.80181884765625,0.62982177734375 
 ,0.000732421875,-0.78179931640625,0.62579345703125 
 ,0.00213623046875,-0.80560302734375,0.60906982421875 
 ,-0.00244140625,-0.82598876953125,0.6080322265625 
 ,-0.00897216796875,-0.82061767578125,0.61016845703125 
 ,-0.013427734375,-0.80902099609375,0.60748291015625 
 ,-0.00787353515625,-0.81182861328125,0.60369873046875 
 ,-0.0001220703125,-0.8133544921875,0.60406494140625 
 ,0.00201416015625,-0.80755615234375,0.61151123046875 
 ,0.000244140625,-0.80523681640625,0.608154296875 
 ,-0.00433349609375,-0.81011962890625,0.60504150390625 
 ,-0.007080078125,-0.813232421875,0.6068115234375 
 ,-0.00616455078125,-0.81170654296875,0.60699462890625 
 ,-0.0037841796875,-0.81182861328125,0.6072998046875 
 ,-0.003173828125,-0.8131103515625,0.60675048828125 
 ,-0.0023193359375,-0.81396484375,0.60552978515625 
 ,-0.00262451171875,-0.810791015625,0.6041259765625 
 ,-0.0029296875,-0.81036376953125,0.6029052734375 
 ,-0.00146484375,-0.8095703125,0.60260009765625 
 ,-0.00201416015625,-0.80938720703125,0.6021728515625 
 ,-0.00201416015625,-0.81103515625,0.60174560546875 
 ,-0.002197265625,-0.8131103515625,0.602294921875 
 ,-0.0029296875,-0.8157958984375,0.6005859375 
 ,-0.00384521484375,-0.819091796875,0.59808349609375 
 ,-0.00262451171875,-0.82171630859375,0.59442138671875 
 ,-0.00494384765625,-0.82220458984375,0.59600830078125 
 ,-0.01153564453125,-0.79876708984375,0.63201904296875 
 ,-0.005859375,-0.8006591796875,0.57806396484375 
 ,-0.0037841796875,-0.81494140625,0.5751953125 
 ,-0.00140380859375,-0.82440185546875,0.58880615234375 
 ,0.003662109375,-0.81903076171875,0.6063232421875 
 ,-0.008544921875,-0.80548095703125,0.6007080078125 
 ,-0.0091552734375,-0.82318115234375,0.57928466796875 
 ,-0.0045166015625,-0.8345947265625,0.58685302734375 
